timestamp, AccelerationX, AccelerationY, AccelerationZ, MagneticFieldX, MagneticFieldY, MagneticFieldZ, Z-AxisAgle(Azimuth), X-AxisAngle(Pitch), Y-AxisAngle(Roll), GyroX, GyroY, GyroZ
1422629483421,-3.577,2.104,9.078,-5.4,-17.9,-28.2,126.404,-12.169,-21.001,0,0,0
1422629483520,-3.424,2.927,9.374,-4.3,-21.9,-26.9,134.694,-11.322,-25.898,0,0,0
1422629483620,-2.505,2.908,8.867,-0.7,-24.4,-26.5,150.906,-17.523,-15.017,0,0,0
1422629483723,-5.473,1.472,9.394,0.3,-25.7,-26.9,138.022,-21.068,-23.941,0,0,0
1422629483822,-3.414,2.018,8.187,3.7,-29.6,-23.9,163.519,-12.814,-22.046,0,0,0
1422629483922,-3.357,1.893,7.756,6.4,-31.5,-22.4,174.009,-2.757,-23.034,0,0,0
1422629484022,-4.123,1.999,8.963,10.3,-31.5,-23,176.887,-11.444,-24.183,0,0,0
1422629484122,-3.395,3.243,9.068,11.4,-32.3,-22.5,183.704,-18.518,-19.419,0,0,0
1422629484222,-2.189,2.985,11.443,11.4,-33.1,-21.5,192.449,-13.901,-11.94,0,0,0
1422629484322,-1.729,1.328,13.061,11.4,-34.3,-21.5,194.598,-5.752,-7.5,0,0,0
1422629484422,-2.284,1.271,10.131,12.2,-35.9,-19.4,190.64,-6.457,-14.908,0,0,0
1422629484522,-3.51,0.974,8.34,13.6,-36.9,-18,187.957,-6.137,-22.677,0,0,0
1422629484622,-2.945,1.577,8.934,10.4,-38.9,-16,181.42,-4.313,-27.963,0,0,0
1422629484722,-2.399,2.161,9.039,4,-41.3,-13.5,178.895,-13.011,-14.471,0,0,0
1422629484822,-2.457,1.558,8.963,-5.6,-41.3,-11.2,166.809,-9.509,-15.109,0,0,0
1422629484922,-1.355,3.406,13.166,-19.4,-33.7,-10.1,144.721,-10.325,-19.409,0,0,0
1422629485022,-0.714,3.243,11.797,-28.3,-23.6,-11.2,124.509,-15.341,-3.333,0,0,0
1422629485122,-2.543,2.41,8.369,-31.5,-13.2,-13.6,104.648,-19.02,-6.605,0,0,0
1422629485222,-0.666,4.373,10.227,-32.1,-4.6,-14.2,88.23,-23.108,-3.424,0,0,0
1422629485322,0.301,2.937,8.015,-29.4,-1.9,-17.2,84.131,-15.809,0.638,0,0,0
1422629485422,0.253,2.64,8.177,-25.9,-1.9,-19.9,79.882,-17.89,1.678,0,0,0
1422629485522,1.527,3.186,8.57,-24.3,-1.9,-21.3,72.68,-20.099,9.474,0,0,0
1422629485622,0.273,2.391,8.024,-21.8,-1.1,-23.9,69.166,-18.317,7.697,0,0,0
1422629485721,0.933,2.42,8.704,-21.8,0.6,-24.3,69.31,-15.446,5.888,0,0,0
1422629485822,1.565,3.014,9.796,-21.8,1.3,-24.9,67.002,-16.031,4.733,0,0,0
1422629485922,0.579,2.525,7.526,-20.8,1.3,-25.8,62.929,-18.503,4.161,0,0,0
1422629486022,-0.015,3.291,8.264,-19.9,2.3,-25.8,59.271,-20.757,1.946,0,0,0
1422629486122,-0.398,3.387,10.217,-19.1,3.6,-26.4,59.947,-18.323,-2.115,0,0,0
1422629486222,-0.407,3.234,9.671,-18.1,4.9,-27.7,55.234,-18.478,-2.278,0,0,0
1422629486322,-1.279,1.51,12.017,-18.5,6.5,-27.3,54.649,-18.367,-4.322,0,0,0
1422629486422,-1.212,1.252,10.744,-19.7,8.3,-26.4,63.699,-6.603,-6.387,0,0,0
1422629486522,0.933,2.305,10.131,-19.7,11,-26,45.679,-17.184,2.231,0,0,0
1422629486622,0.809,2.257,8.474,-18.8,13,-26,40.207,-14.852,5.258,0,0,0
1422629486722,1.125,1.922,9.633,-18.8,13,-26.4,39.882,-12.948,6.666,0,0,0
1422629486822,1.086,2.429,9.7,-19.3,13,-26,40.782,-13.978,6.196,0,0,0
1422629486922,0.636,2.104,8.896,-19.3,13.9,-26.4,41.568,-13.273,3.972,0,0,0
1422629487022,1.45,2.276,9.93,-19.3,13.9,-26.4,40.334,-13.262,5.491,0,0,0
1422629487122,1.048,2.133,9.556,-19.3,13.9,-25.8,40.573,-12.507,6.101,0,0,0
1422629487222,1.163,2.238,9.078,-19.3,13.9,-25.8,39.475,-14.447,6.135,0,0,0
1422629487322,0.751,1.941,9.394,-19.3,13.2,-26.2,43.197,-11.631,4.468,0,0,0
1422629487422,1.01,2.315,9.154,-19.3,12.8,-26.2,41.973,-13.595,5.187,0,0,0
1422629487522,0.972,2.324,9.374,-19.3,12.8,-26.2,41.359,-13.845,5.739,0,0,0
1422629487622,0.838,2.659,9.078,-19.3,12.4,-26.2,41.274,-16.259,5.047,0,0,0
1422629487727,0.177,2.631,9.087,-19.3,12.8,-26.2,42.478,-17.362,1.857,0,0,0
1422629487819,-0.139,2.793,8.905,-18.7,12.8,-26.7,43.411,-17.402,-0.842,0,0,0
1422629487919,-0.331,2.659,9.394,-18.7,12.8,-26.7,42.592,-19.289,-1.058,0,0,0
1422629488020,-0.273,2.765,9.279,-17.2,13.4,-26.7,41.332,-16.578,-1.611,0,0,0
1422629488120,-0.264,2.841,9.614,-15.4,14,-27.1,36.704,-17.465,-1.31,0,0,0
1422629488219,-0.024,2.793,9.891,-14.7,14.5,-27.1,34.572,-15.764,-0.125,0,0,0
1422629488320,-0.187,2.736,9.24,-14.7,14.5,-27.7,34.833,-16.483,-1.107,0,0,0
1422629488483,0.924,2.736,8.618,-15.3,13.7,-27.7,36.705,-15.691,-0.364,0,0,0
1422629488521,0.924,2.736,8.618,-16.2,13.7,-27.7,31.866,-17.514,5.834,0,0,0
1422629488621,-0.762,2.449,8.838,-16.2,13.7,-27.7,32.708,-17.389,5.003,0,0,0
1422629488721,-0.886,2.228,11.969,-16.6,15,-27.7,43.06,-10.517,-4.157,0,0,0
1422629488822,0.502,2.698,9.891,-16.6,16.4,-27.7,38.586,-12.172,-1.949,0,0,0
1422629488921,0.933,2.468,9.03,-15.6,16.8,-27.7,28.614,-15.196,5.685,0,0,0
1422629489021,0.742,1.989,8.637,-15.6,16.8,-27.7,30.374,-12.921,4.78,0,0,0
1422629489123,0.751,2.152,8.79,-15.6,16.8,-27.7,29.774,-13.674,5.086,0,0,0
1422629489219,0.78,2.362,9.135,-15.6,17.5,-28.2,28.952,-14.445,4.715,0,0,0
1422629489321,0.445,2.401,8.704,-15.6,17.5,-28.2,29.194,-14.431,4.454,0,0,0
1422629489421,0.378,2.324,8.848,-15.6,17.5,-28.2,30.912,-14.695,2.357,0,0,0
1422629489522,0.627,2.544,8.972,-15.6,17.1,-28.2,30.521,-14.045,3.571,0,0,0
1422629489621,0.541,2.516,8.972,-15.2,17.1,-28.2,29.413,-15.637,3.308,0,0,0
1422629489721,0.646,2.477,9.259,-15.2,17.1,-28.2,29.208,-14.939,3.849,0,0,0
1422629489821,0.761,2.592,9.259,-15.2,17.1,-28.2,29.141,-15.617,3.621,0,0,0
1422629489921,0.78,2.659,8.982,-15.2,17.1,-28.2,27.835,-16.434,4.75,0,0,0
1422629490021,1.067,2.784,9.106,-15.2,17.1,-28.2,27.342,-16.561,5.245,0,0,0
1422629490121,1.163,2.86,9.192,-15.2,17.1,-28.2,25.65,-17.15,6.877,0,0,0
1422629490222,0.933,2.736,9.068,-15.6,17.1,-28.2,26.676,-17.249,6.49,0,0,0
1422629490321,0.751,2.736,8.876,-15.6,17.1,-28.2,28.417,-17.066,4.614,0,0,0
1422629490421,0.636,2.554,8.474,-15.6,17.1,-28.2,28.987,-16.733,4.103,0,0,0
1422629490521,1.297,2.841,8.972,-16,17.1,-28.2,26.894,-18.058,6.967,0,0,0
1422629490621,0.77,3.033,9.279,-16,17.1,-28.2,29.055,-18.036,4.51,0,0,0
1422629490721,-0.225,2.046,9.652,-16,14.8,-28.2,36.115,-13.203,1.738,0,0,0
1422629490821,-0.656,2.41,9.078,-16,14.2,-28.2,40.72,-14.825,-3.992,0,0,0
1422629490922,0.148,2.602,9.48,-16,13.6,-28.2,42.962,-12.337,-4.027,0,0,0
1422629491021,0.474,2.468,9.202,-16.4,13,-28.2,37.137,-14.982,2.842,0,0,0
1422629491121,0.052,3.282,9.135,-16.4,11.8,-28.2,38.238,-19.758,0.3,0,0,0
1422629491221,-0.474,2.966,8.8,-16.4,11.8,-28.2,39.383,-16.733,0.947,0,0,0
1422629491321,-0.561,2.487,9.346,-16.8,11.8,-28.2,44.676,-14.876,-3.309,0,0,0
1422629491421,-0.589,2.583,10.064,-16.8,12.6,-28.2,42.278,-14.361,-1.279,0,0,0
1422629491521,-0.292,2.544,9.997,-16.8,13,-27.8,42.171,-14.272,-1.615,0,0,0
1422629491620,0.11,2.477,9.413,-16.8,13,-27.8,39.762,-15.828,0.237,0,0,0
1422629491721,0.11,2.707,8.608,-16.8,13.9,-27.8,37.375,-17.446,0.688,0,0,0
1422629491821,0.215,2.611,8.915,-16.8,14.9,-27.8,36.179,-16.324,1.325,0,0,0
1422629491921,-0.388,2.19,9.537,-16.8,15.7,-27.8,37.32,-14.881,-0.369,0,0,0
1422629492021,-0.178,2.295,9.154,-16.8,15.7,-27.8,38.272,-14.067,-1.069,0,0,0
1422629492122,-0.005,2.247,9.25,-16.8,15.7,-27.8,39.175,-12.564,-1.204,0,0,0
1422629492221,-0.149,2.228,9.259,-16.8,15.7,-27.8,38.411,-13.532,-0.887,0,0,0
1422629492326,-0.206,2.353,9.202,-16.8,15.2,-27.8,37.787,-14.159,0.302,0,0,0
1422629492420,-0.388,2.161,9.681,-16.8,14.8,-27.8,41.148,-12.573,-2.234,0,0,0
1422629492521,-0.178,2.267,9.518,-16.4,14.8,-27.8,39.123,-13.386,-1.03,0,0,0
1422629492625,0.158,2.372,9.01,-16.4,14.8,-27.8,38.353,-13.726,-0.303,0,0,0
1422629492721,-0.034,2.343,9.585,-16.4,14.8,-27.8,38.251,-13.739,-0.189,0,0,0
1422629492820,-0.072,2.449,9.432,-16.4,14.4,-27.8,41.535,-11.497,-2.012,0,0,0
1422629492922,-0.206,2.324,9.183,-16.4,14.4,-28.2,39.232,-14.193,-1.239,0,0,0
1422629493022,-0.187,2.458,9.145,-16,14.4,-28.2,38.905,-13.424,-1.093,0,0,0
1422629493122,-0.149,2.382,9.413,-16,14.4,-28.2,38.289,-14.187,-0.87,0,0,0
1422629493221,-0.187,2.439,9.221,-16,14.4,-28.2,38.154,-14.805,-1.12,0,0,0
1422629493321,-0.139,2.41,9.422,-16,14.8,-28.2,37.794,-14.198,-0.873,0,0,0
1422629493421,-0.053,2.449,9.374,-16,14.8,-28.2,37.091,-14.633,-0.303,0,0,0
1422629493545,-0.235,2.382,9.384,-16,14.8,-28.2,36.813,-14.65,0.022,0,0,0
1422629493619,-0.197,2.429,9.355,-16,15.2,-28.2,37.357,-14.556,-1.165,0,0,0
1422629493721,-0.494,2.046,9.461,-16,15.2,-28.2,38.027,-13.62,-1.378,0,0,0
1422629493821,-0.628,2.008,9.394,-16,15.2,-28.2,40.755,-12.037,-3.733,0,0,0
1422629493921,-0.628,2.056,9.719,-16,15.2,-28.2,40.734,-11.913,-3.61,0,0,0
1422629494022,-1.135,1.855,10.868,-16,15.8,-28.2,40.916,-13.769,-6.509,0,0,0
1422629494122,-1.528,1.788,9.192,-16,16.4,-28.2,43.503,-10.85,-9.255,0,0,0
1422629494221,-1.327,2.918,8.953,-16,16.4,-28.2,41.666,-13.579,-8.745,0,0,0
1422629494321,-2.246,3.033,11.452,-16,16.4,-28.2,42.366,-14.563,-10.731,0,0,0
1422629494422,-1.691,2.046,12.171,-16,16.4,-28.2,44.378,-9.715,-9.578,0,0,0
1422629494521,0.531,2.056,10.964,-16,16,-28.2,35.046,-10.601,2.721,0,0,0
1422629494621,1.613,2.133,11.079,-16,15.5,-28.2,30.236,-10.783,8.129,0,0,0
1422629494721,1.259,1.395,8.896,-16,15.5,-28.2,32.634,-5.501,8.686,0,0,0
1422629494821,1.623,1.893,8.953,-16,14.8,-28.2,28.516,-11.751,10.053,0,0,0
1422629494921,0.416,2.209,8.896,-16,14,-28.2,36.55,-10.437,4.11,0,0,0
1422629495021,0.081,2.324,8.781,-16,13.2,-28.2,38.299,-14.818,0.503,0,0,0
1422629495120,0.751,2.161,11.874,-16,13.2,-28.2,38.543,-15.274,-0.086,0,0,0
1422629495219,0.34,2.832,9.049,-16.4,12.3,-28.2,37.361,-17.358,2.041,0,0,0
1422629495321,-0.187,2.219,9.537,-16.4,12.3,-28.2,42.687,-13.092,-1.09,0,0,0
1422629495422,0.215,2.334,9.413,-16.4,11.9,-28.2,40.606,-14.525,1.115,0,0,0
1422629495522,0.215,2.362,9.231,-16.4,10.6,-28.2,42.539,-14.346,1.292,0,0,0
1422629495622,0.196,2.841,8.723,-16.4,10.6,-28.2,39.635,-16.215,3.008,0,0,0
1422629495722,-0.024,2.516,9.317,-16.8,9.3,-28.2,46.037,-15.109,-0.133,0,0,0
1422629495822,-0.331,2.659,9.585,-16.8,9.3,-28.6,46.581,-16.082,-1.838,0,0,0
1422629495922,-0.235,2.755,8.896,-16.8,8.3,-28.6,47.113,-17.205,-1.436,0,0,0
1422629496021,-0.35,2.64,9.461,-16.8,8.3,-28.6,48.88,-15.584,-2.031,0,0,0
1422629496122,-0.149,2.736,9.422,-17.2,8.3,-28.6,48.52,-16.004,-1.256,0,0,0
1422629496220,-0.034,2.803,9.384,-17.2,7.1,-28.6,49.167,-16.625,-0.191,0,0,0
1422629496322,-0.551,2.65,10.207,-17.6,7.7,-28.6,51.415,-16.09,-3.099,0,0,0
1422629496421,-0.245,2.947,9.202,-17.6,7.2,-28.6,49.694,-17.742,-1.445,0,0,0
1422629496522,-0.484,2.573,9.556,-17.6,7.2,-28.6,51.063,-16.266,-1.653,0,0,0
1422629496621,-0.455,2.745,9.69,-18,7.2,-28.6,52.753,-15.797,-2.584,0,0,0
1422629496721,-0.455,2.765,9.729,-18,7.6,-28.6,52.013,-15.84,-2.574,0,0,0
1422629496821,-0.57,2.669,9.508,-18,7.6,-28.6,51.528,-16.297,-2.426,0,0,0
1422629496922,-0.465,2.745,9.853,-18,7.6,-28.6,52.264,-15.548,-2.591,0,0,0
1422629497022,-0.388,2.678,9.461,-18,8.1,-28.6,51.845,-15.221,-2.903,0,0,0
1422629497121,-0.216,2.774,9.336,-18,8.1,-28.6,49.534,-16.539,-1.265,0,0,0
1422629497222,0.004,2.707,9.441,-18,8.1,-28.6,49.532,-16.297,-1.025,0,0,0
1422629497321,-0.082,2.765,9.068,-18,7.7,-28.6,49.242,-16.947,-0.483,0,0,0
1422629497421,-0.302,2.698,9.231,-18,7.7,-28.6,50.829,-16.283,-1.793,0,0,0
1422629497521,-0.656,2.832,9.978,-18,7.7,-28.6,52.106,-15.986,-3.162,0,0,0
1422629497621,-0.666,2.966,9.882,-18,7.3,-28.6,52.63,-16.669,-3.691,0,0,0
1422629497721,0.244,3.215,9.432,-18,7.3,-28.6,49.888,-18.699,-2.153,0,0,0
1422629497821,-0.015,3.061,8.57,-18,7.3,-28.6,47.489,-19.654,-0.09,0,0,0
1422629497922,-0.292,2.774,8.896,-18,6.8,-28.6,49.116,-19.281,-0.675,0,0,0
1422629498021,0.215,3.301,8.618,-18,6.8,-28.6,46.117,-20.948,1.334,0,0,0
1422629498121,-0.091,3.128,8.723,-18,6.8,-28.6,48.676,-19.727,-0.557,0,0,0
1422629498220,0.33,3.186,8.838,-18,6.8,-28.6,46.072,-20.25,1.958,0,0,0
1422629498320,0.368,3.004,9.183,-18,6.8,-28.6,47.559,-18.095,2.172,0,0,0
1422629498421,0.474,3.157,8.809,-18,6.8,-28.6,46.912,-17.555,3.331,0,0,0
1422629498521,0.129,2.947,9.001,-18,6.8,-28.6,48.802,-18.122,0.767,0,0,0
1422629498621,-0.082,2.611,9.269,-18,6.8,-28.6,50.32,-17.053,0.024,0,0,0
1422629498719,-0.158,2.803,9.068,-18,6.8,-28.6,51.03,-17.17,-0.952,0,0,0
1422629498820,-0.245,2.803,9.269,-18,6.8,-28.6,51.718,-16.819,-1.441,0,0,0
1422629498921,-0.34,2.899,9.365,-18,6.8,-28.6,51.316,-16.958,-1.09,0,0,0
1422629499021,-0.197,2.879,9.422,-18,6.8,-28.6,51.332,-16.992,-1.142,0,0,0
1422629499121,-0.206,2.765,9.078,-18,6.8,-28.6,51.469,-17.022,-1.34,0,0,0
1422629499219,-0.206,2.822,9.087,-18,6.8,-28.2,51.407,-17.239,-1.233,0,0,0
1422629499322,0.024,2.879,9.135,-18,6.8,-28.2,49.841,-17.369,0.536,0,0,0
1422629499421,-0.139,2.707,9.413,-18,7.3,-28.2,51.12,-16.035,-0.803,0,0,0
1422629499521,-0.015,2.812,9.01,-18,7.3,-28.2,49.481,-17.335,-0.086,0,0,0
1422629499620,-0.091,2.899,8.656,-18.4,7.8,-28.2,48.917,-17.621,0.248,0,0,0
1422629499737,-0.005,2.631,9.882,-18.4,7.8,-28.2,51.32,-14.905,-0.023,0,0,0
1422629499820,-0.264,2.64,9.212,-18.4,7.8,-28.2,50.025,-17.122,-0.644,0,0,0
1422629499921,-0.302,2.698,8.934,-18.4,7.8,-28.2,51.218,-16.795,-1.847,0,0,0
1422629500022,0.138,2.87,9.03,-18.4,8.2,-28.2,50.802,-15.737,-1.399,0,0,0
1422629500121,-0.12,2.87,8.513,-18.4,8.2,-28.2,48.136,-18.627,-0.758,0,0,0
1422629500221,0.158,3.31,8.752,-18,8.6,-28.2,44.094,-20.712,0.953,0,0,0
1422629500321,-0.206,3.895,8.11,-18,8.6,-28.6,51.219,-15.048,-3.09,0,0,0
1422629500421,0.349,5.254,8.369,-18,9,-28.6,36.531,-32.099,2.018,0,0,0
1422629500519,0.368,4.469,9.01,-18,9,-28.6,39.837,-25.197,1.93,0,0,0
1422629500622,-0.149,4.048,8.694,-17.5,9,-28.6,41.537,-24.963,-0.88,0,0,0
1422629500723,0.522,3.665,10.275,-17.5,9.4,-28.6,44.901,-19.269,-1.485,0,0,0
1422629500822,-0.541,2.372,10.188,-17,9.4,-28.6,49.784,-13.09,-2.958,0,0,0
1422629500922,-0.953,2.027,11.184,-17,9.9,-28.6,52.595,-10.229,-4.79,0,0,0
1422629501022,-0.446,2.851,8.283,-16,10.5,-28.6,51.495,-9.699,-6.139,0,0,0
1422629501119,0.282,2.774,9.556,-15.2,11.2,-29,37.291,-16.177,1.614,0,0,0
1422629501222,0.043,3.157,7.842,-14.1,11.9,-29,31.236,-22.149,1.708,0,0,0
1422629501323,0.761,3.291,9.145,-14.1,11.9,-29,29.573,-19.734,4.47,0,0,0
1422629501430,0.33,3.818,7.086,-14.1,11.4,-29,29.774,-18.345,5.302,0,0,0
1422629501529,-0.015,2.219,10.188,-15.6,11.4,-29,41.934,-12.285,-0.079,0,0,0
1422629501622,-0.857,2.611,8.867,-15.6,11.4,-29,43.558,-16.339,-5.292,0,0,0
1422629501722,0.196,2.745,9.336,-16.4,11.4,-29,38.054,-18.884,1.204,0,0,0
1422629501822,0.387,2.659,9.566,-16.4,11.4,-29,39.144,-15.522,2.231,0,0,0
1422629501922,-0.225,2.592,9.824,-16.4,11,-29,41.683,-15.379,0.41,0,0,0
1422629502023,-0.743,2.64,10.083,-16.4,9.9,-29,47.632,-14.637,-4.069,0,0,0
1422629502123,-1.317,2.267,10.112,-16.4,9.5,-29,51.174,-14.68,-8.1,0,0,0
1422629502222,-1.039,2.247,10.552,-16.4,9.9,-29,50.813,-11.965,-5.498,0,0,0
1422629502323,-1.154,2.362,9.604,-16.4,10.3,-29,49.599,-13.721,-6.651,0,0,0
1422629502422,-0.628,2.382,9.978,-16.4,10.7,-29,48.396,-12.011,-4.125,0,0,0
1422629502523,-0.819,2.343,9.662,-15.8,10.7,-29,46.62,-13.586,-4.699,0,0,0
1422629502622,-1.02,2.247,9.911,-15.8,11.3,-29,44.299,-14.538,-3.929,0,0,0
1422629502723,-0.455,2.104,10.064,-15.4,11.3,-29,44.489,-11.795,-2.532,0,0,0
1422629502823,-0.877,2.554,9.815,-14.8,12.2,-29,47.453,-11.536,-9.342,0,0,0
1422629502919,-1.375,2.037,9.834,-14.4,12.2,-29,45.701,-11.588,-7.793,0,0,0
1422629503021,-1.183,2.315,9.71,-14.8,12.6,-29,43.713,-13.316,-6.753,0,0,0
1422629503122,-0.599,2.324,9.528,-15.2,12.6,-29,40.866,-13.356,-2.472,0,0,0
1422629503219,-0.589,2.104,10.342,-15.7,13.1,-28.6,42.932,-11.479,-3.188,0,0,0
1422629503322,0.033,2.41,9.288,-16.2,13.5,-28.6,39.695,-14.78,-1.422,0,0,0
1422629503422,0.052,2.535,9.633,-16.2,13.5,-28.6,38.267,-14.736,0.293,0,0,0
1422629503523,0.1,2.468,9.125,-16.2,13.5,-28.6,38.812,-14.621,-0.259,0,0,0
1422629503696,0.512,2.439,9.566,-16.2,14.6,-28.2,34.838,-14.278,2.957,0,0,0
1422629503719,0.512,2.439,9.566,-16.2,14.6,-28.2,34.838,-14.278,2.957,0,0,0
1422629503821,-0.024,2.247,9.537,-16.2,14,-28.2,36.594,-14.512,1.747,0,0,0
1422629503922,0.1,2.372,9.374,-16.2,14,-28.2,37.787,-14.198,0.582,0,0,0
1422629504022,-0.34,2.458,9.403,-16.2,14,-28.2,37.302,-15.512,0.302,0,0,0
1422629504122,-0.388,2.315,9.815,-16.2,13.6,-28.2,41.171,-13.259,-2.197,0,0,0
1422629504220,-0.427,2.401,9.489,-15.8,13.6,-28.2,39.605,-14.821,-2.206,0,0,0
1422629504322,-0.35,2.468,9.652,-15.8,13.6,-28.2,39.728,-14.325,-2.001,0,0,0
1422629504422,-0.388,2.429,9.719,-15.8,13.6,-28.2,40.077,-14.023,-2.213,0,0,0
1422629504522,-0.359,2.506,9.499,-15.8,13.6,-28.2,39.62,-14.644,-2.097,0,0,0
1422629504622,-0.465,2.458,9.643,-15.8,13.6,-28.2,40.283,-14.285,-2.663,0,0,0
1422629504722,-0.312,2.477,9.48,-15.8,14,-28.2,39.716,-13.967,-2.377,0,0,0
1422629504822,-0.216,2.496,9.518,-15.8,14,-28.2,38.392,-14.684,-1.253,0,0,0
1422629504923,-0.369,2.487,9.614,-15.8,14,-27.8,39.131,-14.352,-1.793,0,0,0
1422629505026,-0.359,2.458,9.528,-15.8,14,-27.8,39.309,-14.456,-2.085,0,0,0
1422629505119,-0.359,2.468,9.547,-16.2,14,-27.8,39.937,-14.474,-2.082,0,0,0
1422629505221,-0.35,2.496,9.604,-16.2,14,-27.8,40.035,-14.289,-2.071,0,0,0
1422629505321,-0.321,2.506,9.662,-16.2,14,-27.8,39.712,-14.529,-1.833,0,0,0
1422629505422,-0.331,2.496,9.47,-16.2,14,-27.8,39.987,-14.52,-2.178,0,0,0
1422629505522,-0.359,2.525,9.489,-16.2,14,-27.8,39.71,-14.894,-2.09,0,0,0
1422629505623,-0.273,2.506,9.451,-16.2,14,-27.8,40.023,-14.678,-2.341,0,0,0
1422629505722,-0.407,2.535,9.681,-16.2,14,-27.8,40.023,-14.655,-2.321,0,0,0
1422629505820,-0.254,2.477,9.643,-16.2,13.6,-27.8,40.013,-14.398,-1.461,0,0,0
1422629505919,-0.091,2.286,9.327,-15.8,13.6,-27.8,40.205,-13.388,-1.77,0,0,0
1422629506022,0.407,2.19,8.982,-15.8,13.6,-27.8,36.319,-13.688,2.511,0,0,0
1422629506120,0.541,2.525,8.56,-15.8,13.6,-27.8,34.218,-13.237,4.966,0,0,0
1422629506238,0.799,2.075,9.499,-15.8,13.6,-27.8,35.038,-12.28,4.696,0,0,0
1422629506319,1.508,2.516,8.484,-16.2,13.6,-27.8,33.243,-12.369,7.145,0,0,0
1422629506420,1.565,2.659,9.298,-16.2,13.6,-27.8,29.347,-15.75,9.193,0,0,0
1422629506520,2.102,2.41,11.28,-16.2,13.6,-27.8,30.011,-11.858,10.326,0,0,0
1422629506621,0.914,2.669,9.959,-16.2,13.6,-27.8,29.361,-12.248,10.71,0,0,0
1422629506721,-0.838,2.142,11.318,-16.6,13.6,-27.8,45.034,-10.681,-4.16,0,0,0
1422629506820,-1.853,2.324,9.911,-16.6,13.6,-27.8,45.695,-15.755,-9.871,0,0,0
1422629506921,-1.901,2.516,8.934,-16.6,14,-27.8,46.362,-15.397,-11.574,0,0,0
1422629507021,-1.461,2.142,10.246,-16.6,14,-27.4,46.286,-14.903,-10.884,0,0,0
1422629507122,-1.02,2.496,8.857,-16.6,14,-27.4,43.057,-15.635,-6.327,0,0,0
1422629507229,-1.442,2.171,11.366,-16,14,-27.4,43.606,-13.606,-6.586,0,0,0
1422629507321,-1.068,2.573,9.03,-15.5,14,-27.4,44.946,-10.722,-7.095,0,0,0
1422629507419,-0.953,2.496,9.997,-15.5,14,-27.4,41.69,-13.951,-5.281,0,0,0
1422629507520,-1.26,2.583,9.805,-15.9,14,-27.4,42.324,-13.762,-5.155,0,0,0
1422629507621,-1.308,2.611,9.796,-15.5,14,-27.4,42.643,-14.803,-7.345,0,0,0
1422629507721,-0.915,2.496,10.073,-15.5,14.4,-27.4,41.724,-14.592,-6.598,0,0,0
1422629507821,-0.905,2.554,9.7,-14.9,14.4,-27.4,39.609,-14.691,-5.157,0,0,0
1422629507920,-0.733,2.573,9.738,-14.9,14.4,-27.4,38.821,-14.756,-4.152,0,0,0
1422629508019,-0.407,2.631,9.47,-14.9,14.4,-27.4,37.192,-16.073,-2.932,0,0,0
1422629508119,-0.398,2.631,9.556,-14.9,14.4,-27.4,37.048,-15.374,-2.295,0,0,0
1422629508218,-0.407,2.755,9.547,-14.9,14.4,-27.4,36.88,-15.975,-2.474,0,0,0
1422629508321,-0.264,2.688,9.681,-14.9,14.4,-27.4,36.328,-15.512,-1.494,0,0,0
1422629508421,-0.187,2.774,9.384,-14.9,14.4,-27.4,35.914,-16.337,-1.497,0,0,0
1422629508521,-0.398,2.812,9.537,-14.9,14.8,-27.8,35.929,-16.417,-2.288,0,0,0
1422629508620,-0.264,2.784,9.403,-14.9,14.8,-27.8,35.288,-16.485,-1.531,0,0,0
1422629508775,-0.58,2.765,9.374,-14.9,14.8,-27.8,36.255,-16.133,-2.519,0,0,0
1422629508818,-0.58,2.765,9.374,-14.5,14.4,-27.8,36.627,-16.392,-3.395,0,0,0
1422629508920,-0.541,2.726,9.461,-14.5,14.4,-27.8,35.131,-17.973,-2.486,0,0,0
1422629509020,-0.417,2.822,9.47,-14.5,14,-27.8,36.221,-16.57,-2.409,0,0,0
1422629509119,-0.723,2.631,9.93,-14.5,14,-27.8,36.474,-17.834,-3.514,0,0,0
1422629509221,-0.57,2.544,9.681,-14.5,14,-27.8,37.909,-14.7,-3.256,0,0,0
1422629509320,-0.407,2.937,9.164,-14.5,12.9,-27.8,37.068,-17.756,-2.412,0,0,0
1422629509420,-0.465,3.368,9.231,-14.9,12.9,-27.8,35.997,-17.997,-0.483,0,0,0
1422629509521,-0.273,2.736,9.547,-14.9,12.9,-27.8,38.02,-15.977,-1.571,0,0,0
1422629509620,-0.618,2.621,9.614,-14.9,12.9,-27.8,39.405,-15.664,-3.023,0,0,0
1422629509720,-0.618,2.745,9.556,-14.9,12.9,-27.8,39.639,-15.995,-3.549,0,0,0
1422629509821,-0.484,2.851,9.671,-14.9,12.9,-27.8,38.376,-16.676,-2.465,0,0,0
1422629509920,-0.494,2.745,9.566,-14.9,12.9,-27.8,39.058,-15.991,-2.827,0,0,0
1422629510021,-0.34,2.899,9.499,-15.3,12.9,-27.8,38.476,-16.96,-1.961,0,0,0
1422629510121,-0.379,2.774,9.757,-15.3,12.9,-27.8,41.337,-15.826,-4.771,0,0,0
1422629510220,-0.503,2.841,9.25,-15.3,12.4,-27.8,39.936,-17.051,-2.969,0,0,0
1422629510320,-0.331,2.937,9.432,-15.3,12.4,-27.8,40.023,-16.149,-2.432,0,0,0
1422629510420,-0.321,2.947,9.48,-15.3,12.4,-27.8,38.903,-17.254,-1.844,0,0,0
1422629510521,-0.369,2.812,9.432,-15.7,12,-27.8,40.106,-17.74,-2.197,0,0,0
1422629510620,-0.331,2.899,9.154,-15.7,12,-27.8,40.02,-17.56,-1.966,0,0,0
1422629510720,-0.359,3.004,9.461,-15.7,12,-27.8,40.082,-17.597,-2.068,0,0,0
1422629510818,-0.331,2.937,9.403,-15.7,12,-27.8,39.531,-17.767,-1.517,0,0,0
1422629510920,-0.35,2.994,9.346,-15.7,12,-27.8,39.959,-17.756,-2.031,0,0,0
1422629511021,-0.359,3.004,9.221,-15.7,12,-27.8,39.995,-17.443,-1.856,0,0,0
1422629511120,-0.321,3.014,9.384,-15.7,11.6,-27.8,40.328,-17.791,-1.856,0,0,0
1422629511221,-0.379,2.937,9.374,-15.7,11.6,-27.8,40.686,-17.808,-2.304,0,0,0
1422629511320,-0.359,3.014,9.327,-15.7,11.6,-27.8,40.463,-17.896,-2.094,0,0,0
1422629511420,-0.465,2.947,9.575,-15.7,11.6,-27.8,41.392,-17.08,-2.645,0,0,0
1422629511520,-0.637,3.061,9.595,-15.7,11.6,-27.8,40.557,-18.367,-2.546,0,0,0
1422629511620,-0.608,3.349,9.719,-15.7,11.6,-27.8,40.878,-18.98,-3.386,0,0,0
1422629511719,-0.714,3.215,9.432,-15.7,11.6,-27.4,41.12,-19.404,-3.819,0,0,0
1422629511820,-0.685,3.186,8.627,-15.7,11.6,-27.4,41.014,-20.207,-4.255,0,0,0
1422629511919,-0.369,3.76,10.035,-15.7,11.6,-27.4,39.065,-20.535,-1.97,0,0,0
1422629512020,-0.245,3.674,7.967,-15.7,11.6,-27.4,36.74,-24.757,-1.592,0,0,0
1422629512120,-0.35,3.397,8.943,-15.7,11.6,-27.4,39.03,-20.782,-2.085,0,0,0
1422629512220,0.196,3.828,8.762,-15.7,12,-27.4,38.063,-19.691,-0.815,0,0,0
1422629512321,0.292,4.009,9.154,-15.7,12,-27.4,34.102,-23.641,1.666,0,0,0
1422629512421,0.454,3.665,10.562,-15.7,13.1,-27.4,32.322,-21.944,3.112,0,0,0
1422629512520,-0.427,2.209,10.725,-15.7,13.1,-27.4,42.325,-11.626,-2.229,0,0,0
1422629512621,-1.394,1.817,8.752,-15.7,13.1,-27.4,45.37,-12.914,-7.488,0,0,0
1422629512720,-1.432,1.855,10.84,-15.7,13.1,-27.4,47.53,-9.622,-7.417,0,0,0
1422629512819,-0.905,2.315,8.254,-15.7,13.9,-27.4,41.683,-15.577,-6.028,0,0,0
1422629512920,-0.532,2.353,11.156,-15.7,14.4,-27.4,39.486,-16.381,-4.494,0,0,0
1422629513018,-0.484,2.726,8.924,-15.7,14,-27.4,38.546,-16.967,-2.965,0,0,0
1422629513119,-0.628,2.64,11.156,-15.7,14,-27.4,38.41,-17.201,-2.945,0,0,0
1422629513218,-0.302,2.765,9.298,-15.7,14,-27.4,37.841,-16.545,-1.777,0,0,0
1422629513322,-0.111,2.774,9.327,-15.7,14,-27.4,35.955,-17.13,0.199,0,0,0
1422629513420,-0.111,2.669,9.451,-15.7,14,-27.4,37.325,-15.771,-0.633,0,0,0
1422629513521,0.004,2.678,8.79,-16.1,13.6,-27.4,37.335,-16.938,0.024,0,0,0
1422629513620,-0.331,3.148,9.384,-16.6,13.6,-27.4,38.578,-18.234,-1.275,0,0,0
1422629513721,-0.618,2.956,9.633,-17.3,13.1,-27,42.902,-17.027,-3.501,0,0,0
1422629513848,-0.484,3.1,9.499,-17.3,12.6,-27,44.068,-17.611,-4.63,0,0,0
1422629513918,-0.628,3.128,9.681,-17.3,13.1,-27,42.47,-17.874,-3.526,0,0,0
1422629514021,-0.407,3.033,9.47,-17.3,13.1,-27,42.241,-18.415,-3.596,0,0,0
1422629514119,-0.254,3.023,9.394,-17.3,13.1,-27,41.019,-17.835,-1.475,0,0,0
1422629514219,-0.235,3.014,9.183,-17.3,13.5,-27,40.289,-18.163,-1.384,0,0,0
1422629514321,-0.158,3.033,9.317,-17.3,13.5,-26.6,39.879,-18.187,-0.642,0,0,0
1422629514420,-0.187,3.052,9.164,-17.3,13.5,-26.6,40.107,-18.417,-1.106,0,0,0
1422629514520,-0.225,3.042,9.087,-17.3,13.5,-26.6,40.54,-17.992,-1.41,0,0,0
1422629514620,-0.283,3.052,9.355,-17.3,13.5,-26.6,40.674,-18.065,-1.646,0,0,0
1422629514723,-0.312,3.1,9.489,-17.8,13.5,-26.6,41.123,-18.651,-1.559,0,0,0
1422629514821,-0.388,3.1,9.24,-17.8,13.5,-26.6,41.684,-18.529,-2.274,0,0,0
1422629514920,-0.427,3.071,9.413,-17.8,13.5,-26.6,42.052,-18.048,-2.463,0,0,0
1422629515020,-0.359,3.1,9.48,-17.8,13.1,-26.2,42.205,-18.525,-2.094,0,0,0
1422629515120,-0.35,3.109,9.288,-18.2,13.1,-26.2,42.767,-18.496,-2.036,0,0,0
1422629515220,-0.427,3.071,9.307,-18.2,13.1,-26.2,42.937,-17.992,-1.912,0,0,0
1422629515320,-0.331,3.061,9.317,-18.2,13.1,-26.2,42.854,-18.174,-1.926,0,0,0
1422629515421,-0.331,3.023,9.279,-18.2,13.1,-26.2,42.903,-17.971,-1.851,0,0,0
1422629515520,-0.359,3.081,9.384,-18.2,13.1,-26.2,42.963,-18.163,-2.078,0,0,0
1422629515621,-0.302,3.081,9.384,-18.2,13.1,-26.2,42.732,-18.166,-1.746,0,0,0
1422629515720,-0.331,3.052,9.327,-18.2,13.5,-26.2,42.588,-18.107,-2.237,0,0,0
1422629515820,-0.35,3.052,9.346,-18.2,13.5,-26.2,42.462,-18.073,-2.028,0,0,0
1422629515920,-0.312,2.994,9.317,-18.2,13.5,-26.2,42.876,-17.714,-2.376,0,0,0
1422629516020,-0.321,3.004,9.365,-18.2,13.5,-26.2,42.499,-17.771,-1.861,0,0,0
1422629516121,-0.398,3.014,9.508,-18.2,13.5,-26.2,42.391,-18.015,-1.879,0,0,0
1422629516218,-0.359,3.004,9.422,-18.2,13.9,-26.2,42.193,-17.665,-2.076,0,0,0
1422629516320,-0.35,2.994,9.403,-18.2,13.9,-26.2,42.161,-17.654,-2.021,0,0,0
1422629516421,-0.302,2.985,9.374,-18.2,13.9,-26.2,41.849,-17.771,-1.646,0,0,0
1422629516518,-0.254,2.985,9.259,-18.2,13.9,-26.2,41.706,-17.859,-1.496,0,0,0
1422629516620,-0.292,3.014,9.279,-18.2,13.9,-26.2,41.858,-18.244,-1.993,0,0,0
1422629516720,-0.321,3.081,9.451,-18.2,13.9,-26.2,41.849,-18.045,-1.84,0,0,0
1422629516821,-0.359,3.052,9.422,-18.2,13.9,-26.2,41.878,-17.947,-1.814,0,0,0
1422629516920,-0.302,3.1,9.317,-18.2,13.9,-26.2,41.628,-18.389,-1.756,0,0,0
1422629517020,-0.331,3.061,9.298,-18.2,13.9,-26.2,41.832,-18.209,-1.929,0,0,0
1422629517120,-0.474,3.014,9.441,-18.2,13.9,-26.2,42.261,-18.13,-2.507,0,0,0
1422629517218,-0.599,2.975,9.24,-18.2,13.9,-26.2,43.083,-17.81,-3.526,0,0,0
1422629517320,-1.518,2.372,9.154,-18.2,13.9,-26.2,46.119,-15.43,-6.472,0,0,0
1422629517421,-1.834,3.301,9.7,-18.2,13.9,-26.2,46.635,-18.485,-10.144,0,0,0
1422629517521,-1.959,2.516,9.01,-18.2,13.9,-26.2,44.549,-18.339,-6.301,0,0,0
1422629517621,-1.461,2.372,8.972,-17.8,13.9,-26.2,47.439,-14.626,-8.944,0,0,0
1422629517721,-2.074,2.879,8.484,-17.8,13.9,-26.2,47.718,-18.253,-13.029,0,0,0
1422629517821,-3.577,2.851,12.707,-17.8,13.9,-26.2,49.417,-19.102,-17.628,0,0,0
1422629517921,-1.786,3.368,10.361,-17.8,14.3,-26.2,45.508,-17.762,-9.312,0,0,0
1422629518021,1.546,3.789,7.622,-17.8,14.3,-26.6,35.891,-16.445,5.293,0,0,0
1422629518119,1.948,3.55,8.13,-17.8,14.3,-26.6,26.947,-23.007,12.384,0,0,0
1422629518219,1.134,2.544,8.024,-17.8,14.3,-26.6,31.821,-13.915,10.938,0,0,0
1422629518321,0.407,2.544,9.231,-17.8,14.3,-26.6,38.776,-15.392,2.424,0,0,0
1422629518420,0.531,2.554,9.145,-17.8,14.3,-27,37.889,-15.579,3.196,0,0,0
1422629518521,-0.312,2.659,9.863,-17.8,14.3,-27,38.32,-16.166,2.3,0,0,0
1422629518621,0.589,2.621,10.466,-17.8,14.3,-27,38.766,-14.032,3.117,0,0,0
1422629518719,0.77,2.956,9.039,-17.8,14.3,-27,34.265,-19.833,5.193,0,0,0
1422629518821,0.081,2.803,9.317,-17.8,14.3,-27,39.455,-16.739,0.47,0,0,0
1422629518920,0.263,2.803,8.867,-17.8,14.7,-27,38.006,-17.723,1.141,0,0,0
1422629519021,0.234,2.841,8.905,-17.8,14.7,-27,37.799,-17.688,1.43,0,0,0
1422629519119,0.215,2.812,9.068,-17.8,14.7,-27,38.118,-17.227,1.297,0,0,0
1422629519219,-0.024,2.966,9.173,-17.8,14.7,-27.4,38.119,-17.923,0.594,0,0,0
1422629519321,-0.082,2.908,9.183,-17.8,14.7,-27.4,39.085,-17.577,-0.474,0,0,0
1422629519421,0.024,2.851,9.058,-17.8,14.7,-27.4,38.903,-17.613,-0.252,0,0,0
1422629519521,-0.034,2.87,9.212,-17.8,14.7,-27.4,39.008,-17.303,-0.195,0,0,0
1422629519621,-0.321,2.908,9.355,-17.8,14.7,-27.4,39.671,-17.303,-1.092,0,0,0
1422629519721,-0.292,2.822,9.164,-17.8,14.7,-27.4,40.235,-17.1,-1.737,0,0,0
1422629519821,-0.254,2.879,9.422,-17.8,14.7,-27.4,40.1,-16.992,-1.476,0,0,0
1422629519921,-0.178,2.956,9.192,-17.8,14.7,-27.4,39.315,-18.071,-1.109,0,0,0
1422629520024,-0.197,2.947,9.173,-17.8,14.7,-27.4,39.488,-17.795,-1.169,0,0,0
1422629520119,-0.149,2.994,9.288,-17.8,14.7,-27.4,39.777,-17.516,-1.38,0,0,0
1422629520218,-0.168,2.927,9.097,-17.8,14.7,-27.4,39.351,-17.837,-1.006,0,0,0
1422629520322,-0.13,2.975,9.212,-17.8,15.1,-27.4,38.93,-17.643,-0.936,0,0,0
1422629520421,-0.13,2.918,9.202,-17.8,15.1,-27.4,38.834,-17.586,-0.766,0,0,0
1422629520521,-0.13,2.899,9.145,-17.8,15.1,-27.4,38.838,-17.582,-0.77,0,0,0
1422629520621,-0.168,2.832,9.25,-17.4,15.1,-27.4,38.086,-17.745,-0.934,0,0,0
1422629520721,-0.043,2.889,9.556,-17.4,15.1,-27.4,38.01,-16.815,-0.247,0,0,0
1422629520819,0.071,2.889,9.01,-17.4,15.1,-27.4,38.539,-17.395,-1.331,0,0,0
1422629520918,0.004,2.851,9.078,-17.4,15.1,-27.4,37.515,-17.424,0.024,0,0,0
1422629521019,-0.072,2.889,9.221,-17.4,15.1,-27.4,37.976,-17.448,-0.598,0,0,0
1422629521120,-0.101,2.832,9.355,-17.4,15.1,-27.4,38.255,-16.837,-0.588,0,0,0
1422629521221,-0.12,2.899,9.145,-17.4,15.1,-27.4,37.993,-17.582,-0.709,0,0,0
1422629521321,-0.197,2.918,8.934,-17.4,15.1,-27.4,38.31,-17.175,-0.878,0,0,0
1422629521421,-0.273,2.918,9.269,-17.4,15.1,-27.4,38.709,-17.463,-1.606,0,0,0
1422629521521,0.052,3.109,8.867,-17.4,15.1,-27.4,37.199,-18.601,-0.265,0,0,0
1422629521621,0.483,3.483,9.068,-17.4,15.1,-27.4,33.813,-20.98,2.835,0,0,0
1422629521721,-0.417,4.144,9.997,-17.4,15.1,-27.4,33.699,-22.242,2.375,0,0,0
1422629521818,-0.273,3.512,7.794,-17.4,15.1,-27.4,36.969,-22.497,-2.201,0,0,0
1422629521918,-0.101,3.454,8.608,-17.4,15.1,-27.4,36.096,-21.861,-0.619,0,0,0
1422629522018,-0.015,3.981,8.867,-17.8,15.1,-27.4,35.697,-23.769,0.022,0,0,0
1422629522119,0.244,4.048,9.317,-17.8,15.1,-27.4,34.819,-23.471,1.374,0,0,0
1422629522218,0.234,2.899,11.721,-17.8,15.6,-27.4,33.854,-23.89,1.809,0,0,0
1422629522318,-0.13,1.836,8.733,-17.8,15.6,-27.4,41.176,-11.867,-0.828,0,0,0
1422629522419,-0.733,1.587,9.413,-17.8,16.3,-27.4,43.964,-9.532,-4.38,0,0,0
1422629522518,-0.819,1.931,10.456,-17.8,17.8,-27.4,41.435,-10.436,-4.395,0,0,0
1422629522618,-0.503,2.19,9.039,-17.8,18.8,-27.4,37.983,-13.597,-3.088,0,0,0
1422629522719,-0.81,1.951,10.294,-17.8,18.8,-27.8,39.112,-11.613,-3.503,0,0,0
1422629522819,-0.522,2.372,9.317,-17.8,18.8,-27.8,37.63,-14.263,-3.109,0,0,0
1422629522918,0.071,2.563,9.633,-17.8,18,-27.8,36.599,-15.642,-1.247,0,0,0
1422629523020,0.024,2.717,8.254,-17.8,17.4,-27.8,35.229,-18.214,0.146,0,0,0
1422629523119,-0.379,2.544,9.824,-17.8,16.8,-27.8,39.027,-14.507,-2.127,0,0,0
1422629523218,-0.359,2.784,9.164,-17.8,16.2,-28.2,38.557,-16.885,-2.143,0,0,0
1422629523318,-0.264,2.956,9.48,-18.3,16.2,-28.2,38.487,-17.313,-1.512,0,0,0
1422629523418,-0.369,2.889,9.384,-18.3,15.4,-28.2,39.404,-17.489,-1.672,0,0,0
1422629523518,-0.359,2.889,9.135,-18.3,16,-28.2,38.977,-17.534,-2.143,0,0,0
1422629523618,-0.494,3.119,9.556,-18.3,16,-28.2,39.057,-17.802,-2.433,0,0,0
1422629523718,-0.522,3.205,9.384,-18.3,16,-28.2,38.999,-18.821,-3.015,0,0,0
1422629523821,-0.35,3.215,9.202,-18.3,16.8,-28.6,37.654,-19.133,-2.626,0,0,0
1422629523985,-0.187,3.224,9.259,-18.3,16.8,-28.6,36.58,-19.183,-1.106,0,0,0
1422629524019,-0.187,3.224,9.259,-18.3,17.2,-28.6,36.167,-19.192,-1.088,0,0,0
1422629524120,-0.235,3.272,9.279,-18.7,17.2,-28.6,36.898,-19.343,-1.156,0,0,0
1422629524218,-0.245,3.196,9.279,-18.7,17.2,-29,37.1,-18.998,-1.422,0,0,0
1422629524321,-0.359,3.243,9.374,-18.7,17.2,-29,37.198,-19.241,-1.709,0,0,0
1422629524420,-0.273,3.272,9.25,-18.7,17.2,-29,37.025,-19.47,-1.59,0,0,0
1422629524520,-0.312,3.272,9.212,-18.7,16.8,-29,37.228,-19.658,-1.431,0,0,0
1422629524620,-0.321,3.339,9.374,-18.7,16.8,-29,37.54,-19.591,-1.838,0,0,0
1422629524720,-0.292,3.349,9.336,-19.1,16.8,-29,37.918,-19.727,-1.679,0,0,0
1422629524820,-0.302,3.291,9.279,-19.1,16.4,-29,38.347,-19.794,-1.76,0,0,0
1422629524921,-0.321,3.31,9.288,-19.1,16.4,-29,38.495,-19.606,-1.856,0,0,0
1422629525020,-0.302,3.282,9.259,-19.1,16.4,-29,38.445,-19.591,-1.779,0,0,0
1422629525120,-0.273,3.243,9.097,-19.1,16.4,-29,38.325,-19.613,-1.616,0,0,0
1422629525230,-0.254,3.263,9.145,-19.1,16.4,-29,38.444,-19.55,-1.749,0,0,0
1422629525320,-0.264,3.301,9.365,-19.1,16.4,-29,38.34,-19.404,-1.512,0,0,0
1422629525420,-0.187,3.32,9.173,-19.1,16.4,-29,37.842,-19.892,-1.093,0,0,0
1422629525520,-0.206,3.33,9.087,-19.1,16.4,-29,38.295,-19.626,-1.583,0,0,0
1422629525620,-0.235,3.291,9.154,-19.1,16.4,-29,38.088,-19.773,-1.375,0,0,0
1422629525720,-0.34,3.33,9.384,-19.1,16.4,-29,38.215,-19.658,-1.487,0,0,0
1422629525819,-0.273,3.282,9.039,-19.1,16.4,-29,38.189,-19.946,-1.623,0,0,0
1422629525923,-0.331,3.339,9.221,-19.1,16.4,-29,38.254,-19.45,-1.417,0,0,0
1422629526021,-0.292,3.138,9.183,-19.1,16.4,-29,38.715,-18.862,-1.716,0,0,0
1422629526121,-0.158,3.243,9.039,-19.1,16.4,-29,37.803,-19.734,-0.941,0,0,0
1422629526219,0.608,3.061,9.087,-19.1,16.4,-29,36.888,-19.885,0.248,0,0,0
1422629526321,1.048,3.301,8.809,-19.1,16.4,-29,31.916,-20.402,6.347,0,0,0
1422629526419,0.234,3.109,8.647,-19.1,16.4,-29,32.525,-20.253,5.685,0,0,0
1422629526521,0.301,2.621,8.197,-19.1,16.4,-29,36.499,-17.716,2.004,0,0,0
1422629526626,0.952,3.196,8.675,-19.1,16.4,-29,33.821,-21.564,3.464,0,0,0
1422629526721,1.757,3.377,9.595,-19.1,16.4,-29,29.357,-19.102,9.79,0,0,0
1422629526821,2.159,3.425,11.922,-19.1,16.4,-29,30.551,-15.782,9.871,0,0,0
1422629526921,-1.595,3.157,11.098,-19.1,16.4,-29,33.808,-18.97,4.726,0,0,0
1422629527020,-1.451,2.966,8.694,-19.1,16.4,-29,43.378,-18.599,-8.972,0,0,0
1422629527119,-2.121,2.985,9.92,-19.1,17.8,-29,41.012,-20.71,-9.096,0,0,0
1422629527220,-1.968,3.138,8.781,-19.1,18.4,-29,42.545,-19.228,-11.922,0,0,0
1422629527321,-1.097,2.669,9.729,-19.1,18.4,-29,41.639,-17.1,-8.521,0,0,0
1422629527421,-1.011,2.918,9.796,-19.1,18,-29,40.643,-16.499,-5.642,0,0,0
1422629527521,-0.79,3.243,8.637,-19.1,18,-29,38.519,-20.501,-4.887,0,0,0
1422629527621,-1.355,3.349,9.518,-19.1,17,-28.6,42.034,-13.059,-3.228,0,0,0
1422629527719,-0.743,2.832,9.662,-19.1,16.5,-28.6,41.672,-16.286,-4.213,0,0,0
1422629527819,-0.771,2.975,9.805,-19.5,15.7,-28.6,42.22,-16.035,-2.661,0,0,0
1422629527921,-0.752,2.879,9.327,-19.5,14.8,-28.6,43.921,-17.11,-4.404,0,0,0
1422629528022,-0.81,3.176,9.815,-19.5,14.8,-28.6,43.513,-18.422,-4.795,0,0,0
1422629528121,-0.819,3.234,9.575,-19.5,14.4,-28.2,43.901,-18.601,-4.623,0,0,0
1422629528219,-0.934,3.224,9.652,-19.5,14.4,-28.2,44.392,-18.395,-5.245,0,0,0
1422629528321,-0.58,3.291,9.566,-19.9,14,-28.2,44.854,-18.502,-4.485,0,0,0
1422629528421,-0.551,3.349,9.374,-19.9,14.7,-28.2,42.687,-19.628,-3.169,0,0,0
1422629528521,-0.455,3.406,9.413,-19.9,14.7,-28.2,42.353,-20.117,-3.006,0,0,0
1422629528620,-0.417,3.416,9.259,-19.9,14.7,-28.2,41.916,-20.225,-2.412,0,0,0
1422629528721,-0.283,3.406,9.135,-19.9,14.7,-28.2,41.625,-20.341,-2.054,0,0,0
1422629528821,-0.35,3.454,9.24,-20.3,14.7,-27.8,42.211,-20.483,-2.022,0,0,0
1422629528921,-0.474,3.492,9.259,-20.3,14.7,-27.8,42.601,-20.639,-2.736,0,0,0
1422629529050,-0.417,3.521,9.173,-20.3,14.7,-27.8,42.404,-20.518,-2.346,0,0,0
1422629529118,-0.388,3.512,9.317,-20.3,14.3,-27.8,42.724,-20.632,-2.227,0,0,0
1422629529220,-0.321,3.444,9.231,-20.7,14.3,-27.8,42.784,-20.98,-1.765,0,0,0
1422629529321,-0.407,3.425,9.269,-20.7,14.3,-27.8,43.487,-20.261,-2.349,0,0,0
1422629529421,-0.292,3.435,9.259,-20.7,14.3,-27.8,43.34,-20.056,-1.973,0,0,0
1422629529521,-0.321,3.397,9.202,-20.7,14.3,-27.8,43.181,-20.246,-1.865,0,0,0
1422629529621,-0.503,3.416,9.327,-21.1,13.9,-27.8,44.884,-20.086,-2.892,0,0,0
1422629529721,-0.436,3.397,9.374,-21.1,13.9,-27.8,44.52,-19.954,-2.222,0,0,0
1422629529821,-0.369,3.33,9.279,-21.1,13.9,-27.8,44.578,-19.719,-2.141,0,0,0
1422629529919,-0.388,3.358,9.451,-21.1,13.9,-27.4,44.879,-19.918,-2.532,0,0,0
1422629530018,-0.455,3.368,9.327,-21.1,13.9,-27.4,44.98,-19.834,-2.626,0,0,0
1422629530121,-0.427,3.291,9.288,-21.1,13.9,-27.4,44.759,-19.611,-2.108,0,0,0
1422629530220,-0.417,3.282,9.365,-21.1,13.9,-27.4,45.094,-19.296,-2.4,0,0,0
1422629530320,-0.436,3.253,9.298,-21.1,13.9,-27.4,45.187,-19.265,-2.525,0,0,0
1422629530421,-0.427,3.282,9.317,-21.1,13.9,-27.4,44.788,-19.521,-2.085,0,0,0
1422629530521,-0.407,3.215,9.288,-21.1,13.9,-27.4,45.181,-19.07,-2.363,0,0,0
1422629530619,-0.292,3.176,9.48,-21.1,13.9,-27.4,45.517,-19.093,-2.92,0,0,0
1422629530719,-0.474,3.32,9.269,-21.1,14.3,-27.4,44.657,-19.686,-2.752,0,0,0
1422629530821,-0.379,3.272,9.489,-21.1,14.3,-27.4,44.468,-19.274,-2.138,0,0,0
1422629530921,-0.369,3.282,9.154,-21.1,14.3,-27.4,44.284,-19.71,-2.171,0,0,0
1422629531021,-0.522,3.32,9.068,-21.1,14.3,-27.4,44.687,-20.082,-3.095,0,0,0
1422629531119,-0.216,3.521,8.762,-21.1,14.3,-27.4,44.789,-20.205,-3.351,0,0,0
1422629531221,0.32,3.837,7.986,-21.1,14.3,-27.4,38.995,-25.642,2.065,0,0,0
1422629531321,-0.312,4.383,7.928,-21.1,14.7,-27.4,42.266,-19.677,0.248,0,0,0
1422629531421,0.024,3.942,7.172,-21.5,14.7,-27.4,39.34,-28.806,0.157,0,0,0
1422629531522,-0.072,4.22,8.963,-21.5,14.7,-27.4,41.437,-22.465,0.468,0,0,0
1422629531621,-0.388,4.153,9.489,-21.5,15.1,-27.4,42.233,-23.615,-2.139,0,0,0
1422629531721,-0.091,4.498,10.265,-21.5,15.1,-27.4,41.161,-23.66,-0.46,0,0,0
1422629531821,0.301,3.071,10.102,-21.5,15.6,-27.4,37.792,-25.518,2.825,0,0,0
1422629531921,0.129,2.717,7.727,-21.5,17.4,-27.4,39.53,-19.365,0.888,0,0,0
1422629532021,-1.02,2.592,10.188,-21.5,19.1,-27.4,42.713,-13.726,-3.699,0,0,0
1422629532120,-0.599,2.64,9.48,-21.5,20,-27.4,40.858,-15.533,-3.479,0,0,0
1422629532221,-0.063,2.726,9.422,-21.5,20.6,-27.4,35.615,-19.48,2.135,0,0,0
1422629532319,-0.331,2.621,9.461,-21.1,20,-27.8,39.409,-15.47,-1.924,0,0,0
1422629532418,-0.503,3.167,8.675,-21.1,18.8,-27.8,39.679,-20.024,-3.111,0,0,0
1422629532520,-0.053,2.86,8.608,-21.1,18.8,-27.8,40.858,-16.059,-2.496,0,0,0
1422629532621,0.1,2.985,8.857,-21.1,18.4,-27.8,38.296,-18.621,0.601,0,0,0
1422629532719,-0.178,3.033,9.068,-21.1,18,-28.2,39.875,-15.84,0.34,0,0,0
1422629532821,-0.283,3.052,9.24,-21.1,18,-28.2,40.147,-18.273,-1.664,0,0,0
1422629532922,-0.302,3.138,9.259,-21.1,18,-28.2,40.667,-18.326,-2.546,0,0,0
1422629533021,-0.206,3.215,8.953,-21.1,18,-28.6,39.172,-19.741,-1.233,0,0,0
1422629533119,-0.225,3.186,9.269,-21.1,18.4,-28.6,39.14,-18.963,-1.317,0,0,0
1422629533221,-0.091,3.349,9.087,-20.7,18.4,-28.6,38.266,-20.149,-1.441,0,0,0
1422629533320,-0.254,3.243,9.24,-20.7,18.4,-29,38.483,-19.331,-1.485,0,0,0
1422629533422,-0.206,3.301,9.135,-20.7,18.4,-29,38.236,-19.942,-1.464,0,0,0
1422629533520,-0.235,3.406,9.058,-20.7,18.8,-29,37.571,-20.602,-1.382,0,0,0
1422629533621,-0.197,3.349,8.972,-20.7,18.8,-29,38.139,-19.862,-1.852,0,0,0
1422629533720,-0.206,3.397,9.173,-20.7,18.8,-29,37.558,-20.309,-1.198,0,0,0
1422629533821,-0.187,3.368,9.212,-20.7,18.8,-29,37.572,-20.082,-1.088,0,0,0
1422629533921,-0.206,3.387,9.135,-20.7,18.8,-29.4,37.345,-20.387,-1.104,0,0,0
1422629534020,-0.158,3.397,8.991,-20.7,18.8,-29.4,37.13,-20.688,-0.94,0,0,0
1422629534121,-0.245,3.406,9.164,-20.7,18.8,-29.4,37.441,-20.294,-1.198,0,0,0
1422629534221,-0.091,3.377,9.049,-20.7,18.4,-29.4,37.303,-20.471,-0.534,0,0,0
1422629534319,-0.254,3.454,9.173,-20.7,18.4,-29.4,37.433,-20.613,-0.81,0,0,0
1422629534420,-0.13,3.444,8.991,-20.7,18.4,-29.4,37.28,-20.952,-0.768,0,0,0
1422629534521,-0.178,3.397,9.192,-20.7,18.4,-29.4,37.703,-20.274,-1.029,0,0,0
1422629534619,-0.225,3.387,9.221,-20.7,18,-29.4,37.92,-20.632,-1.001,0,0,0
1422629534718,-0.197,3.425,8.972,-20.7,18,-29.4,37.934,-20.89,-1.172,0,0,0
1422629534818,-0.273,3.349,9.202,-20.7,18,-29.4,38.629,-20.151,-1.809,0,0,0
1422629534919,-0.178,3.416,9.164,-20.7,18,-29.4,38.015,-20.432,-1.032,0,0,0
1422629535019,-0.206,3.282,9.078,-20.7,18,-29.4,38.263,-20.156,-1.246,0,0,0
1422629535127,-0.254,3.138,9.24,-20.7,18,-29.4,38.98,-18.754,-1.49,0,0,0
1422629535236,-0.417,3.301,9.116,-20.7,18,-29.4,37.584,-19.996,-0.133,0,0,0
1422629535319,-0.388,2.947,9.212,-20.7,18,-29.4,39.152,-19.883,-2.456,0,0,0
1422629535421,-0.331,2.975,9.154,-20.7,18,-29.4,39.607,-17.992,-1.963,0,0,0
1422629535521,-0.379,2.908,9.327,-20.7,18.5,-29.4,39.451,-17.681,-2.342,0,0,0
1422629535621,-0.848,3.033,9.298,-20.7,20,-29.4,39.372,-17.99,-4.944,0,0,0
1422629535721,-0.838,2.908,9.432,-20.7,21.3,-29.4,38.889,-17.599,-6.004,0,0,0
1422629535821,-0.963,3.023,8.905,-20.7,21.3,-29.4,38.42,-18.653,-5.845,0,0,0
1422629535921,-1.719,2.956,9.269,-20.3,20.8,-29.4,41.121,-17.408,-10.018,0,0,0
1422629536020,-2.054,3.684,10.562,-20.3,19.9,-29.4,42.428,-18.03,-11.312,0,0,0
1422629536121,-2.361,3.483,11.491,-20.3,19.5,-29.4,43.354,-16.532,-11.117,0,0,0
1422629536220,-0.896,3.042,11.031,-20.3,19.5,-29.4,43.15,-17.133,-11.217,0,0,0
1422629536321,0.943,2.937,8.781,-20.3,18.9,-29.4,32.472,-18.4,5.809,0,0,0
1422629536421,1.651,2.698,8.905,-20.3,18.9,-29.4,32.49,-17.837,6.04,0,0,0
1422629536521,1.929,2.784,9.01,-20.3,18.5,-29.4,28.468,-16.81,11.55,0,0,0
1422629536621,1.039,2.554,8.809,-20.3,18.5,-29.4,33.173,-16.066,6.458,0,0,0
1422629536721,0.311,2.496,9.24,-21,18.5,-29.4,37.088,-15.737,3.052,0,0,0
1422629536821,0.33,2.602,8.187,-21.9,18.5,-29.4,38.133,-17.613,2.198,0,0,0
1422629536924,0.33,2.707,9.058,-21.9,18.5,-29,39.468,-15.192,1.958,0,0,0
1422629537021,0.627,2.889,8.848,-21.9,18.9,-29,36.579,-18.036,3.851,0,0,0
1422629537120,0.292,2.899,9.365,-21.9,18.2,-29,38.211,-18.043,2.411,0,0,0
1422629537221,0.004,2.994,8.752,-21.5,18.2,-29,38.807,-18.889,0.024,0,0,0
1422629537321,0.014,3.023,8.905,-21.5,18.2,-29,38.832,-18.752,0.073,0,0,0
1422629537421,-0.178,3.014,8.8,-21.5,18.2,-29,39.262,-18.295,-0.305,0,0,0
1422629537521,-0.12,3.052,8.905,-21.5,18.2,-29,39.285,-18.917,-0.723,0,0,0
1422629537621,-0.178,3.339,9.192,-21.5,18.2,-29,39.498,-19.296,-1.293,0,0,0
1422629537721,-0.101,3.109,9.183,-21.5,18.2,-29.4,39.159,-18.706,-0.593,0,0,0
1422629537821,-0.321,3.023,9.183,-21.5,18.2,-29.4,39.93,-18.146,-1.429,0,0,0
1422629537920,-0.302,3.1,9.451,-21.9,18.2,-29.4,40.773,-18.15,-1.734,0,0,0
1422629538021,-0.158,3.109,9.183,-21.9,18.2,-29.4,40.035,-18.706,-0.933,0,0,0
1422629538119,-0.111,3.081,8.963,-21.9,18.2,-29.4,39.989,-18.275,-0.586,0,0,0
1422629538224,-0.187,3.061,9.25,-21.9,18.2,-29.4,40.305,-18.304,-1.095,0,0,0
1422629538319,-0.149,3.176,9.259,-21.9,18.2,-29.4,39.955,-19.183,-1.106,0,0,0
1422629538421,-0.158,3.109,8.886,-21.9,18.2,-29.8,39.694,-19.285,-0.959,0,0,0
1422629538521,-0.187,3.186,9.135,-21.9,18.2,-29.8,39.691,-18.88,-0.703,0,0,0
1422629538632,-0.053,3.176,9.078,-21.9,18.2,-29.8,39.272,-19.276,-0.305,0,0,0
1422629538718,-0.072,3.167,9.049,-21.9,18.2,-30.2,39.221,-19.289,-0.429,0,0,0
1422629538819,-0.072,3.128,9.039,-21.9,18.2,-30.2,39.504,-19.228,-0.822,0,0,0
1422629538920,-0.091,3.167,8.963,-21.5,18.2,-30.2,38.571,-19.458,-0.543,0,0,0
1422629539020,-0.149,3.196,9.087,-21.5,18.2,-30.2,38.42,-19.654,-0.431,0,0,0
1422629539183,-0.13,3.186,9.068,-21.5,18.2,-30.2,38.522,-19.48,-0.481,0,0,0
1422629539246,-0.091,3.196,8.886,-21.5,18.2,-30.2,38.765,-19.354,-0.768,0,0,0
1422629539318,-0.111,3.282,9.068,-21.5,18.2,-30.2,38.464,-19.894,-0.644,0,0,0
1422629539418,-0.139,3.301,8.991,-21.5,18.2,-30.2,38.482,-20.152,-0.821,0,0,0
1422629539519,-0.072,3.243,8.982,-21.5,18.2,-30.2,38.387,-19.814,-0.478,0,0,0
1422629539620,-0.082,3.282,9.049,-21.5,18.2,-30.2,38.336,-19.933,-0.474,0,0,0
1422629539719,-0.158,3.282,8.934,-21.5,18.2,-30.2,38.165,-20.086,-0.31,0,0,0
1422629539820,-0.12,3.301,9.02,-21.5,18.2,-30.2,38.431,-20.095,-0.709,0,0,0
1422629539921,-0.178,3.339,8.838,-21.5,18.2,-30.2,38.774,-19.697,-0.992,0,0,0
1422629540020,-0.111,3.358,9.097,-21.5,18.2,-30.2,38.32,-20.255,-0.64,0,0,0
1422629540118,-0.139,3.387,9.183,-21.5,18.2,-30.6,38.266,-20.24,-0.803,0,0,0
1422629540220,-0.13,3.301,8.982,-21.5,18.2,-30.6,38.44,-19.634,-0.703,0,0,0
1422629540320,-0.12,3.272,8.838,-21.5,18.2,-30.6,38.181,-20.309,-0.723,0,0,0
1422629540419,-0.254,3.253,9.039,-21.5,18.2,-30.6,38.689,-19.963,-1.277,0,0,0
1422629540520,-0.235,3.243,8.79,-21.5,18.2,-30.6,38.68,-20.238,-1.427,0,0,0
1422629540621,0.186,3.665,8.436,-21.5,18.2,-30.6,38.646,-20.121,-1.303,0,0,0
1422629540720,0.55,4.009,9.03,-21.5,18.2,-30.6,34.164,-23.897,3.178,0,0,0
1422629540820,-0.494,3.952,10.14,-21.5,18.2,-30.6,39.031,-21.267,-2.586,0,0,0
1422629540920,-0.053,3.914,7.861,-21.5,18.2,-30.6,38.273,-25.456,-3.775,0,0,0
1422629541020,0.11,3.885,10.006,-21.5,18.2,-30.6,36.946,-21.212,0.578,0,0,0
1422629541119,-0.091,4.536,9.451,-21.5,18.2,-30.6,35.566,-26.628,-0.088,0,0,0
1422629541220,0.186,4.594,9.269,-21.5,18.2,-30.6,34.907,-26.356,1.019,0,0,0
1422629541321,0.981,2.755,8.781,-21.5,18.2,-30.6,35.664,-20.514,2.742,0,0,0
1422629541420,-0.752,2.41,9.585,-21.5,18.2,-30.6,43.338,-14.065,-4.35,0,0,0
1422629541520,-1.432,1.625,8.953,-21.5,18.2,-31.1,48.079,-10.157,-8.942,0,0,0
1422629541620,-0.695,2.133,9.92,-21.5,18.6,-31.1,47.497,-10.07,-8.643,0,0,0
1422629541721,-0.637,2.87,8.56,-21.1,18.6,-31.1,40.118,-18.489,-4.036,0,0,0
1422629541820,-0.58,2.41,9.959,-21.1,18.6,-31.6,41.616,-12.183,-1.889,0,0,0
1422629541926,-0.81,2.879,8.608,-20.7,18.6,-32,40.106,-18.422,-5.094,0,0,0
1422629542021,-0.905,3.1,9.403,-20.7,18.6,-32,40.243,-15.922,-3.544,0,0,0
1422629542119,-0.723,3.253,8.934,-20.7,18.6,-32,38.975,-19.946,-4.348,0,0,0
1422629542220,-0.714,3.176,9.939,-20.7,18.2,-32.4,39.97,-17.672,-3.908,0,0,0
1422629542321,-0.675,3.243,8.79,-20.7,16.9,-32.4,40.661,-18.537,-3.593,0,0,0
1422629542420,-0.618,3.358,9.556,-20.7,16.2,-32.4,41.014,-19.32,-3.482,0,0,0
1422629542521,-0.302,3.598,9.135,-20.7,15.5,-32.4,39.748,-21.128,-1.973,0,0,0
1422629542620,-0.484,3.521,9.298,-20.7,14.6,-32.4,41.471,-20.718,-2.783,0,0,0
1422629542721,-0.513,3.339,9.125,-20.7,14.6,-32.8,42.654,-19.463,-3.712,0,0,0
1422629542821,-0.273,3.406,9.078,-20.7,14.6,-32.8,40.55,-20.561,-1.609,0,0,0
1422629542920,-0.321,3.435,8.991,-20.3,14.6,-32.8,40.091,-20.899,-1.901,0,0,0
1422629543021,-0.436,3.301,9.307,-20.3,14.6,-32.8,40.333,-20.387,-1.884,0,0,0
1422629543120,-0.35,3.301,9.183,-20.3,14.6,-33.2,40.645,-19.756,-2.043,0,0,0
1422629543221,-0.245,3.377,9.116,-20.3,14.6,-33.2,40.139,-20.13,-1.636,0,0,0
1422629543320,-0.427,3.349,9.307,-20.3,14.6,-33.2,40.959,-19.773,-2.467,0,0,0
1422629543421,-0.331,3.397,9.173,-20.3,14.6,-33.2,40.718,-19.853,-2.204,0,0,0
1422629543520,-0.35,3.377,9.192,-20.3,14.6,-33.2,40.43,-20.162,-2.036,0,0,0
1422629543620,-0.35,3.358,9.135,-20.7,14.6,-33.2,40.945,-20.168,-2.049,0,0,0
1422629543720,-0.321,3.406,9.183,-20.7,14.6,-33.2,41.141,-20.168,-2.311,0,0,0
1422629543821,-0.321,3.435,9.125,-20.7,14.6,-33.2,40.584,-20.619,-1.877,0,0,0
1422629543919,-0.321,3.416,9.145,-21.1,14.6,-33.2,41.013,-20.785,-1.887,0,0,0
1422629544021,-0.302,3.473,9.049,-21.1,14.2,-33.2,41.377,-20.98,-1.779,0,0,0
1422629544119,-0.254,3.464,9.097,-21.1,14.2,-32.8,41.507,-20.664,-1.548,0,0,0
1422629544267,-0.254,3.387,9.02,-21.1,14.2,-32.8,41.455,-20.767,-1.546,0,0,0
1422629544318,-0.254,3.387,9.02,-21.1,14.2,-32.8,41.529,-20.568,-1.51,0,0,0
1422629544420,-0.235,3.425,9.24,-21.5,14.2,-32.8,41.777,-20.725,-1.28,0,0,0
1422629544520,-0.273,3.473,9.039,-21.5,14.2,-32.8,41.878,-21.002,-1.611,0,0,0
1422629544619,-0.264,3.454,9.039,-21.5,14.2,-32.8,42.054,-20.744,-1.665,0,0,0
1422629544721,-0.235,3.425,9.068,-21.5,14.2,-32.4,42.014,-20.686,-1.38,0,0,0
1422629544821,-0.168,3.435,8.963,-21.5,14.2,-32.4,42.293,-20.447,-1.592,0,0,0
1422629544920,-0.225,3.406,8.991,-21.5,14.2,-32.4,41.957,-20.744,-1.342,0,0,0
1422629545020,-0.302,3.397,9.116,-21.5,14.2,-32.4,42.441,-20.419,-1.772,0,0,0
1422629545118,-0.225,3.483,9.068,-21.5,14.2,-32.4,41.931,-20.942,-1.445,0,0,0
1422629545218,-0.264,3.444,9.01,-21.5,14.2,-32.4,42.031,-20.909,-1.557,0,0,0
1422629545320,-0.254,3.454,9.145,-21.5,14.2,-32.4,42.108,-20.585,-1.438,0,0,0
1422629545420,-0.197,3.454,9.039,-21.5,14.2,-32.4,41.741,-20.905,-1.163,0,0,0
1422629545521,-0.273,3.416,9.068,-21.5,14.2,-32.4,41.988,-20.823,-1.438,0,0,0
1422629545622,-0.235,3.387,8.905,-21.5,14.2,-32.4,41.969,-20.808,-1.403,0,0,0
1422629545718,-0.245,3.454,9.164,-21.5,14.2,-32.4,42.068,-20.645,-1.426,0,0,0
1422629545820,-0.216,3.406,8.924,-21.5,14.2,-32.4,41.809,-20.924,-1.267,0,0,0
1422629545918,-0.264,3.444,8.982,-21.5,14.2,-32.4,42.003,-20.971,-1.56,0,0,0
1422629546020,-0.254,3.454,9.106,-21.5,14.2,-32.4,41.614,-20.914,-0.997,0,0,0
1422629546120,-0.178,3.416,8.953,-21.5,14.2,-32.4,41.676,-20.875,-1.053,0,0,0
1422629546221,-0.216,3.435,8.991,-21.9,14.2,-32.4,42.301,-21.03,-1.109,0,0,0
1422629546321,-0.312,3.483,8.953,-21.9,14.2,-32.4,42.733,-21.242,-1.856,0,0,0
1422629546418,-0.101,3.473,8.963,-21.9,14.2,-32.4,41.849,-21.173,-0.598,0,0,0
1422629546520,-0.245,3.454,8.972,-21.9,14.2,-32.4,42.641,-20.724,-1.363,0,0,0
1422629546621,-0.225,3.416,9.068,-21.9,14.2,-32.4,42.665,-20.632,-1.331,0,0,0
1422629546721,-0.005,3.32,8.867,-21.9,14.2,-32.4,42.572,-20.748,-1.286,0,0,0
1422629546821,0.234,3.397,8.704,-21.9,14.2,-32.4,40.232,-21.306,1.43,0,0,0
1422629546921,0.991,3.128,8.398,-21.9,14.2,-32.4,39.047,-20.045,3.662,0,0,0
1422629547021,0.273,3.205,9.116,-21.9,14.2,-32,41.255,-19.356,1.614,0,0,0
1422629547121,0.273,3.454,8.446,-22.3,14.2,-32,40.245,-22.232,1.71,0,0,0
1422629547221,0.981,3.157,7.986,-22.3,14.2,-32,37.238,-22.136,5.449,0,0,0
1422629547321,1.537,3.215,8.991,-22.3,14.2,-32,35.183,-19.411,9.139,0,0,0
1422629547421,2.753,3.569,10.916,-22.3,14.2,-31.6,34.458,-16.786,11.523,0,0,0
1422629547521,1.565,3.77,8.991,-22.3,14.2,-31.6,34.123,-22.44,9.118,0,0,0
1422629547621,-1.087,2.42,9.164,-22.3,14.2,-31.6,43.367,-16.41,1.937,0,0,0
1422629547721,-1.336,2.956,8.216,-22.3,18.1,-31.2,44.365,-19.55,-8.696,0,0,0
1422629547820,-1.643,2.803,11.969,-22.3,20.3,-31.2,44.45,-13.057,-7.611,0,0,0
1422629547920,-1.394,3.071,8.905,-19.2,20.7,-31.2,38.931,-22.112,-11.652,0,0,0
1422629548026,-0.867,2.64,9.824,-17.7,20.2,-31.2,36.288,-14.986,-4.867,0,0,0
1422629548121,-0.752,2.65,9.528,-16.9,20.2,-31.2,34.596,-17.216,-5.324,0,0,0
1422629548219,-0.944,2.975,9.614,-16.9,20.2,-31.2,34.653,-17.115,-5.348,0,0,0
1422629548322,-0.877,2.659,10.447,-16.9,19.1,-31.2,35.901,-17.463,-5.965,0,0,0
1422629548418,-1.212,3.291,9.164,-16.9,18.7,-31.2,36.126,-19.602,-7.086,0,0,0
1422629548521,-0.675,2.994,10.006,-17.4,18.3,-31.7,36,-16.627,-3.692,0,0,0
1422629548621,-0.972,3.061,9.614,-17.4,18.3,-31.7,35.793,-17.688,-4.062,0,0,0
1422629548721,-0.733,3.014,9.317,-17.4,17.7,-32.2,36.262,-17.868,-4.271,0,0,0
1422629548821,-0.331,3.119,9.279,-17,17.7,-32.2,35.098,-17.498,-3.228,0,0,0
1422629548921,-0.312,3.071,9.729,-17,18.1,-32.2,33.567,-17.507,-1.748,0,0,0
1422629549021,-0.417,3.138,9.489,-17.8,18.1,-32.2,34.641,-19.402,-2.507,0,0,0
1422629549121,-0.427,3.081,9.202,-17.8,17.7,-32.2,35.401,-18.49,-2.514,0,0,0
1422629549221,-0.427,3.071,9.327,-17.8,17.7,-32.2,35.505,-18.209,-2.484,0,0,0
1422629549342,-0.359,3.282,9.279,-17.8,17.7,-32.2,35.133,-18.9,-2.393,0,0,0
1422629549418,-0.359,3.31,9.279,-17.4,17.7,-32.2,33.853,-19.623,-2.083,0,0,0
1422629549520,-0.474,3.243,9.212,-17.4,17.7,-32.2,34.597,-19.615,-3.064,0,0,0
1422629549621,-0.455,3.368,9.192,-17.4,17.7,-32.6,33.993,-20.099,-2.659,0,0,0
1422629549721,-0.407,3.368,9.183,-16.9,17.3,-32.6,33.391,-20.343,-2.278,0,0,0
1422629549821,-0.398,3.387,9.097,-16.9,17.3,-32.6,33.42,-20.401,-2.344,0,0,0
1422629549921,-0.398,3.435,9.173,-16.9,17.3,-32.6,33.357,-20.51,-2.323,0,0,0
1422629550021,-0.369,3.425,9.307,-16.9,17.3,-32.6,33.022,-20.894,-2.092,0,0,0
1422629550121,-0.312,3.406,8.963,-16.9,17.3,-32.6,32.877,-20.8,-1.859,0,0,0
1422629550219,-0.34,3.454,9.049,-16.9,17.3,-32.6,33.454,-20.246,-2.308,0,0,0
1422629550319,-0.302,3.416,9.212,-17.3,17.3,-32.6,33.549,-20.33,-1.755,0,0,0
1422629550418,-0.359,3.397,9.097,-17.3,17.3,-32.6,33.775,-20.46,-2.115,0,0,0
1422629550519,-0.283,3.454,9.183,-17.3,16.9,-32.6,33.702,-20.604,-1.65,0,0,0
1422629550630,-0.436,3.406,9.327,-17.3,16.9,-32.6,33.454,-20.647,-1.359,0,0,0
1422629550718,-0.302,3.339,8.953,-17.3,16.9,-32.6,34.612,-20.048,-2.505,0,0,0
1422629550818,-0.369,3.349,9.164,-17.7,16.9,-32.6,34.894,-20.063,-2.164,0,0,0
1422629550921,-0.427,3.444,9.221,-17.7,16.9,-32.6,34.989,-20.3,-2.421,0,0,0
1422629551021,-0.359,3.349,9.001,-17.7,16.5,-32.6,35.217,-20.397,-2.138,0,0,0
1422629551121,-0.369,3.406,9.24,-17.7,16.5,-32.6,35.182,-20.108,-1.929,0,0,0
1422629551229,-0.417,3.339,9.269,-17.7,16.5,-32.6,35.705,-19.795,-2.418,0,0,0
1422629551319,-0.513,3.339,9.106,-17.7,16.5,-32.6,36.03,-20.108,-3.022,0,0,0
1422629551420,-0.388,3.483,9.173,-17.7,16.5,-32.6,35.447,-19.404,-1.865,0,0,0
1422629551519,-0.455,3.368,9.078,-17.7,16.5,-32.6,35.672,-20.33,-2.689,0,0,0
1422629551620,-0.541,3.55,9.403,-17.7,16.5,-32.6,36.223,-20.337,-3.41,0,0,0
1422629551720,-0.446,3.512,8.829,-17.7,16.5,-32.6,35.086,-21.663,-2.679,0,0,0
1422629551821,0.024,4.086,9.614,-17.7,16.5,-32.6,33.048,-24.865,-1.657,0,0,0
1422629551920,0.1,4.258,10.954,-18.1,16.5,-32.6,33.32,-21.242,0.479,0,0,0
1422629552020,-0.043,4.249,7.593,-18.1,16.5,-32.6,31.1,-29.232,-0.284,0,0,0
1422629552120,0.043,4.239,9.355,-18.1,16.5,-32.6,32.183,-25.671,-0.198,0,0,0
1422629552220,0.225,4.641,8.321,-18.1,16.5,-32.6,29.88,-29.142,1.341,0,0,0
1422629552320,-0.283,4.479,9.652,-18.1,16.5,-32.6,31.156,-27.778,0.229,0,0,0
1422629552420,0.483,4.009,9.891,-18.1,16.5,-33,31.081,-22.04,2.581,0,0,0
1422629552521,-0.379,2.372,9.01,-18.1,16.5,-33,32.257,-18.095,3.113,0,0,0
1422629552620,-0.503,2.2,8.254,-18.1,16.5,-33,39.371,-14.899,-3.361,0,0,0
1422629552720,-1.576,2.65,9.327,-18.1,16.5,-33.4,43.099,-15.644,-9.229,0,0,0
1422629552820,-0.321,2.947,8.79,-17.7,16.5,-33.4,38.489,-15.88,-3.733,0,0,0
1422629552920,-0.781,2.832,10.131,-17.7,16.5,-33.4,39.06,-15.568,-4.243,0,0,0
1422629553020,-0.628,3.109,9.575,-17.7,16.5,-33.8,36.985,-18.026,-3.405,0,0,0
1422629553120,-0.838,3.243,11.098,-17.7,16.5,-33.8,38.506,-16.244,-4.145,0,0,0
1422629553220,-0.407,3.09,9.125,-17.7,16.5,-33.8,35.189,-20.074,-2.391,0,0,0
1422629553321,-0.398,2.717,9.556,-17.7,16.1,-34.2,37.54,-15.853,-2.29,0,0,0
1422629553419,-0.551,2.822,9.087,-17.7,16.1,-34.2,37.641,-17.214,-3.314,0,0,0
1422629553521,-0.532,3.128,9.623,-17.3,16.1,-34.2,37.512,-17.28,-3.875,0,0,0
1422629553620,-0.455,3.138,9.346,-17.3,16.1,-34.6,35.743,-18.54,-2.64,0,0,0
1422629553718,-0.13,3.023,8.934,-17.3,16.1,-34.6,34.648,-18.302,-1.223,0,0,0
1422629553818,-0.158,3.128,9.097,-17.3,15.7,-35,34.322,-18.976,-0.94,0,0,0
1422629553921,-0.302,3.205,9.135,-16.8,15.7,-35,33.909,-19.274,-1.508,0,0,0
1422629554020,-0.35,3.234,9.03,-16.8,15.7,-35,34.204,-19.691,-2.078,0,0,0
1422629554118,-0.427,3.282,9.24,-16.8,15.3,-35.4,34.906,-19.534,-2.488,0,0,0
1422629554222,-0.398,3.368,9.24,-16.8,15.3,-35.4,34.37,-20.102,-2.204,0,0,0
1422629554319,-0.436,3.387,9.202,-16.8,15.3,-35.4,34.622,-20.179,-2.535,0,0,0
1422629554421,-0.407,3.33,9.279,-16.4,15.3,-35.4,33.668,-20.037,-2.028,0,0,0
1422629554520,-0.379,3.368,9.049,-16.4,15.3,-35.4,33.679,-20.397,-2.236,0,0,0
1422629554621,-0.379,3.406,9.231,-16.4,15.3,-35.4,33.648,-20.184,-2.087,0,0,0
1422629554718,-0.35,3.387,9.154,-16.4,15.3,-35.4,33.56,-20.289,-2.043,0,0,0
1422629554820,-0.283,3.377,9.078,-16.4,15.3,-35.4,33.172,-20.402,-1.672,0,0,0
1422629554920,-0.379,3.416,9.279,-16.4,15.3,-35.4,33.331,-20.796,-2.063,0,0,0
1422629555020,-0.359,3.387,9.03,-16.4,14.9,-35.4,33.88,-20.54,-2.129,0,0,0
1422629555118,-0.388,3.416,9.154,-16.4,14.9,-35.4,33.94,-20.242,-2.033,0,0,0
1422629555221,-0.436,3.416,9.327,-16.4,14.9,-35.8,34.329,-20.089,-2.503,0,0,0
1422629555321,-0.427,3.397,9.298,-16.4,14.9,-35.8,34.192,-20.186,-2.407,0,0,0
1422629555424,-0.35,3.387,9.125,-16.4,14.9,-35.8,33.789,-20.346,-2.049,0,0,0
1422629555518,-0.388,3.387,9.25,-16.4,14.9,-35.8,34.102,-20.091,-2.251,0,0,0
1422629555621,-0.513,3.397,9.355,-16.4,14.9,-35.8,34.101,-20.227,-2.325,0,0,0
1422629555719,-0.407,3.406,9.269,-16.4,14.9,-35.8,34.154,-20.166,-2.351,0,0,0
1422629555818,-0.465,3.349,9.327,-16.4,14.9,-35.8,34.596,-19.892,-2.689,0,0,0
1422629555918,-0.427,3.32,9.154,-16.4,14.9,-35.8,34.419,-19.918,-2.505,0,0,0
1422629556021,-0.35,3.339,9.173,-16.4,14.9,-35.8,34.417,-19.98,-2.539,0,0,0
1422629556120,-0.398,3.358,9.202,-16.4,14.9,-35.8,34.2,-20.026,-2.323,0,0,0
1422629556219,-0.455,3.349,9.24,-16.4,14.9,-35.8,34.556,-19.901,-2.649,0,0,0
1422629556319,-0.532,3.339,9.279,-16.4,14.9,-35.8,35.488,-19.957,-3.738,0,0,0
1422629556418,-0.608,3.377,9.259,-16,14.9,-35.8,34.711,-20.002,-3.531,0,0,0
1422629556520,-0.599,3.224,9.346,-16,15.3,-35.8,34.652,-19.144,-3.391,0,0,0
1422629556621,-0.637,3.234,9.183,-16,15.3,-35.8,34.851,-19.361,-3.743,0,0,0
1422629556721,-1.059,3.215,8.915,-16,15.3,-35.8,35.142,-18.038,-3.281,0,0,0
1422629556821,-1.336,3.301,9.796,-16,15.7,-35.8,37.959,-18.459,-7.363,0,0,0
1422629556921,-0.992,3.502,9.279,-16,15.7,-35.8,35.526,-20.565,-5.708,0,0,0
1422629557021,-1.288,3.014,8.608,-16,15.7,-35.8,35.484,-20.819,-5.814,0,0,0
1422629557121,-1.777,3.234,8.378,-15.6,16.1,-35.8,38.558,-20.686,-11.183,0,0,0
1422629557219,-2.514,3.732,12.171,-15.6,16.1,-35.8,38.312,-21.695,-11.549,0,0,0
1422629557321,-2.457,3.636,11.318,-15.6,16.1,-35.8,40.672,-17.428,-11.672,0,0,0
1422629557419,-1.231,2.736,11.998,-15.6,16.1,-35.8,39.306,-21.254,-12.674,0,0,0
1422629557521,0.32,2.573,8.963,-15.6,16.1,-35.8,29.531,-16.006,1.962,0,0,0
1422629557619,0.359,3.234,8.513,-15.6,16.1,-35.8,27.083,-20.787,2.252,0,0,0
1422629557721,0.895,2.745,8.235,-15.6,16.1,-36.2,26.432,-15.539,4.858,0,0,0
1422629557821,-0.12,2.688,8.388,-16,16.1,-36.2,32.108,-17.766,-0.772,0,0,0
1422629557919,-0.685,2.506,9.757,-16.7,16.1,-36.2,35.238,-13.928,-0.756,0,0,0
1422629558018,-0.819,2.64,9.269,-17.6,16.1,-36.2,39.079,-15.844,-4.848,0,0,0
1422629558131,0.416,2.774,8.733,-18.6,16.1,-36.2,38.558,-14.267,-1.429,0,0,0
1422629558219,-0.043,2.784,9.413,-19.3,16.1,-36.2,37.119,-16.474,-0.251,0,0,0
1422629558319,-0.235,2.832,9.69,-19.3,16.1,-36.2,38.168,-16.279,-1.324,0,0,0
1422629558421,-0.101,2.879,8.829,-19.9,16.1,-36.2,36.95,-18.537,-0.324,0,0,0
1422629558519,-0.158,3.071,9.049,-19.9,15.2,-36.2,38.269,-18.74,-0.945,0,0,0
1422629558621,-0.139,3.263,9.078,-20.5,14.5,-36.2,38.997,-20.121,-0.899,0,0,0
1422629558721,-0.359,3.31,9.279,-20.5,13.8,-36.2,41.069,-19.623,-2.083,0,0,0
1422629558821,-0.312,3.349,9.049,-20.5,13.8,-36.2,41.582,-19.547,-2.658,0,0,0
1422629558921,-0.264,3.425,9.298,-20.5,13.2,-36.2,40.802,-20.218,-1.515,0,0,0
1422629559021,-0.292,3.33,8.991,-20.5,13.2,-35.8,41.074,-20.304,-1.737,0,0,0
1422629559121,-0.321,3.282,8.982,-20.5,13.2,-35.8,41.708,-19.513,-1.94,0,0,0
1422629559221,-0.264,3.397,9.125,-20.5,12.8,-35.8,41.271,-20.406,-1.543,0,0,0
1422629559318,-0.264,3.339,9.154,-20.5,12.8,-35.8,41.343,-20.38,-1.609,0,0,0
1422629559484,-0.245,3.368,9.097,-20.5,12.8,-35.8,41.397,-20.464,-1.73,0,0,0
1422629559520,-0.13,3.349,8.982,-20.5,12.8,-35.8,41.244,-20.307,-1.44,0,0,0
1422629559620,-0.225,3.387,9.058,-20.5,12.8,-35.8,41.052,-20.486,-1.335,0,0,0
1422629559720,-0.178,3.387,9.001,-20.9,12.8,-35.4,41.399,-20.613,-1.05,0,0,0
1422629559821,-0.12,3.387,8.943,-20.9,12.8,-35.4,41.646,-20.843,-1.512,0,0,0
1422629559921,-0.13,3.435,9.02,-20.9,12.8,-35.4,41.027,-20.849,-0.766,0,0,0
1422629560021,-0.168,3.397,9.049,-20.9,12.8,-35.4,41.013,-20.95,-0.819,0,0,0
1422629560120,-0.13,3.387,8.819,-21.3,12.4,-35.4,42.02,-21.002,-0.782,0,0,0
1422629560222,-0.13,3.397,8.838,-21.3,12.4,-35.4,41.964,-20.358,-0.258,0,0,0
1422629560321,-0.149,3.387,9.01,-21.3,12.4,-35.4,42.342,-20.596,-0.878,0,0,0
1422629560422,-0.158,3.349,9.02,-21.3,12.4,-35.4,42.529,-20.365,-0.94,0,0,0
1422629560521,-0.178,3.282,9.02,-21.3,12.4,-35.4,42.36,-20.49,-0.826,0,0,0
1422629560619,-0.168,3.32,8.943,-21.3,12,-35.4,43.026,-20.369,-1.008,0,0,0
1422629560721,-0.082,3.377,9.01,-21.3,12,-35.4,42.688,-20.518,-0.71,0,0,0
1422629560821,-0.101,3.272,8.905,-21.3,12,-35.4,42.812,-20.168,-0.605,0,0,0
1422629560922,-0.312,3.138,8.972,-21.3,12,-35.4,43.852,-19.58,-1.412,0,0,0
1422629561021,-0.206,3.243,8.829,-21.3,12,-35.4,43.348,-20.166,-1.247,0,0,0
1422629561126,0.378,3.282,9.125,-21.3,12,-35.4,40.569,-19.766,2.224,0,0,0
1422629561220,0.158,2.918,9.135,-21.3,12.4,-35.4,40.027,-18.799,2.984,0,0,0
1422629561319,-0.379,2.975,9.039,-21.3,12.4,-35.4,44.972,-18.199,-2.267,0,0,0
1422629561421,-0.235,3.081,9.384,-21.3,12.4,-35,45.941,-17.65,-2.873,0,0,0
1422629561520,-0.168,3.128,9.078,-21.7,10.1,-35,46.937,-19.009,-1.002,0,0,0
1422629561621,-1.001,2.822,9.815,-21.7,7.3,-35,57.293,-15.773,-6.28,0,0,0
1422629561720,-0.877,2.87,9.125,-21.7,5.6,-35,58.026,-17.384,-5.236,0,0,0
1422629561820,-0.427,2.765,9.499,-21.7,2.7,-35,62.161,-16.204,-2.465,0,0,0
1422629561920,-1.011,3.033,10.112,-21.7,-0.2,-35,68.598,-16.049,-3.682,0,0,0
1422629562020,-1.173,2.994,9.643,-21.7,-3.1,-34.6,74.935,-17.135,-6.619,0,0,0
1422629562118,-2.083,2.822,9.145,-21.7,-6,-34.6,82.364,-16.569,-9.858,0,0,0
1422629562220,-2.256,3.31,8.762,-21.7,-8.6,-34.6,84.347,-20.097,-13.539,0,0,0
1422629562319,-1.796,3.77,8.589,-21.7,-9.9,-34.6,86.076,-20.585,-13.291,0,0,0
1422629562421,-0.561,3.818,9.671,-21.7,-11.2,-34.1,85.379,-21.513,-3.078,0,0,0
1422629562520,-0.245,4.297,9.25,-21.7,-12.7,-32.3,84.965,-24.915,-1.37,0,0,0
1422629562620,-0.608,3.818,8.714,-21.7,-15.2,-29.6,93.813,-24.497,1,0,0,0
1422629562720,-1.02,3.923,8.8,-21.7,-17.1,-29.2,99.613,-23.888,-6.044,0,0,0
1422629562820,-1.183,4.239,9.623,-21.7,-18.3,-28.4,100.57,-25.65,-6.275,0,0,0
1422629562920,-1.308,4.383,8.637,-21.7,-19.9,-27.6,103.266,-26.649,-7.684,0,0,0
1422629563021,-1.231,5.072,8.886,-21.7,-19.9,-27.6,100.709,-28.768,-10.039,0,0,0
1422629563120,-1.892,4.335,9.192,-21.3,-19.5,-28.6,103.673,-24.794,-10.539,0,0,0
1422629563220,-1.633,4.383,8.58,-20.3,-18.3,-29.5,98.516,-26.649,-9.615,0,0,0
1422629563320,-1.614,4.105,9.327,-19.7,-17.4,-29.9,103.543,-21.188,-8.947,0,0,0
1422629563420,-1.097,4.105,9.623,-20.1,-16.8,-29.9,100.208,-22.971,-5.979,0,0,0
1422629563520,-2.054,4.996,7.517,-20.7,-17.9,-28.3,109.113,-18.023,-8.44,0,0,0
1422629563620,-1.796,4.469,11.855,-21.2,-15.2,-28.3,100.768,-20.443,-8.06,0,0,0
1422629563721,2.331,4.881,8.532,-20.7,-17,-28.3,110.493,-17.356,0.097,0,0,0
1422629563820,-1.317,3.464,3.495,-19.7,-21.2,-27.5,87.44,-42.86,-14.99,0,0,0
1422629563920,-4.343,4.843,5.429,-20.1,-20,-27.5,96.493,-34.868,-30.844,0,0,0
1422629564020,-0.867,5.197,11.998,-20.1,-20,-27.5,117.295,-13.415,-13.239,0,0,0
1422629564120,-0.168,5.762,4.433,-19,-21.3,-28.3,65.018,-52.41,-1.322,0,0,0
1422629564220,-2.581,5.111,11.778,-19,-19.3,-28.3,87.064,-40.056,-17.832,0,0,0
1422629564320,-1.375,5.522,8.043,-18.6,-19.3,-28.3,92.042,-34.09,-8.019,0,0,0
1422629564421,-2.447,4.747,7.258,-18.2,-19.3,-28.3,78.19,-44.16,-8.558,0,0,0
1422629564547,-2.447,4.919,10.83,-18.7,-18.8,-28.3,104.515,-23.888,-11.617,0,0,0
1422629564618,-1.681,5.666,8.264,-18.7,-18.8,-28.3,91.565,-33.902,-9.518,0,0,0
1422629564720,-2.275,4.747,8.608,-18.7,-18.8,-28.3,95.863,-30.842,-11.865,0,0,0
1422629564820,-1.853,4.795,9.346,-18.7,-19.5,-28.3,102.671,-26.718,-9.997,0,0,0
1422629564920,-1.106,5.455,7.076,-18.7,-20.1,-28.3,90.151,-36.413,-6.475,0,0,0
1422629565020,-1.375,4.804,7.708,-18.1,-20.6,-28.3,98.455,-31.531,-8.606,0,0,0
1422629565121,-2.466,4.488,9.106,-18.1,-21,-28.3,112.187,-21.044,-13.411,0,0,0
1422629565220,-1.815,5.13,7.766,-17.5,-21.7,-28.3,99.199,-32.755,-11.037,0,0,0
1422629565320,-1.394,4.507,7.823,-15.9,-22.1,-28.3,105.567,-29.563,-8.772,0,0,0
1422629565420,-3.558,2.86,9.451,-13.1,-21.5,-28.3,115.258,-22.715,-12.545,0,0,0
1422629565521,-4.391,3.023,8.915,-10.8,-21,-29,117.843,-16.921,-25.011,0,0,0
1422629565620,-5.435,2.592,8.905,-7.6,-20.2,-31.9,120.13,-11.253,-30.824,0,0,0
1422629565720,-4.793,2.889,8.292,-7,-20.2,-33.3,113.235,-16.782,-28.633,0,0,0
1422629565821,-4.228,2.803,7.478,-7,-20.2,-33.9,106.145,-21.972,-25.499,0,0,0
1422629565920,-4.688,2.707,8.302,-7,-19.7,-34.6,112.465,-15.846,-28.223,0,0,0
1422629566020,-5.119,2.592,8.714,-6.4,-19.7,-34.6,114.324,-14.381,-29.385,0,0,0
1422629566118,-4.496,2.717,7.632,-5.6,-19.7,-35.3,111.951,-15.9,-29.74,0,0,0
1422629566220,-4.602,2.659,7.928,-6,-19.7,-35.3,111.72,-16.177,-28.82,0,0,0
1422629566320,-4.985,2.659,8.656,-6,-19.7,-35.3,113.045,-15.345,-28.579,0,0,0
1422629566420,-5.042,2.554,8.446,-5.6,-19.7,-34.8,114.38,-14.561,-29.746,0,0,0
1422629566521,-5.176,2.535,7.909,-6.6,-19.7,-34.8,113.312,-14.359,-31.418,0,0,0
1422629566620,-5.176,2.458,8.005,-6.6,-19.7,-35.5,112.365,-14.458,-31.722,0,0,0
1422629566720,-5.147,2.659,7.928,-7.5,-18.3,-35.5,107.75,-15.71,-31.613,0,0,0
1422629566820,-4.554,2.525,8.34,-7.5,-17.4,-35.5,107.701,-15.059,-29.074,0,0,0
1422629566920,-4.496,2.353,8.283,-7.5,-16.7,-35.5,108.404,-14.009,-27.572,0,0,0
1422629567020,-4.266,2.324,8.34,-8.1,-15.9,-36.1,105.822,-14.391,-26.364,0,0,0
1422629567120,-4.085,2.468,8.321,-8.1,-15.4,-36.1,104.314,-14.897,-25.201,0,0,0
1422629567221,-4.209,2.563,8.417,-8.5,-15.4,-36.1,103.965,-15.026,-25.235,0,0,0
1422629567320,-4.362,2.458,8.398,-7.9,-14.7,-35.7,103.324,-14.561,-26.504,0,0,0
1422629567420,-4.286,2.477,8.216,-7.9,-14.7,-35.7,102.714,-14.964,-26.54,0,0,0
1422629567520,-3.807,2.698,8.34,-7.9,-14.7,-35.7,104.429,-14.137,-24.784,0,0,0
1422629567620,-3.912,2.477,8.446,-8.3,-14.7,-35.7,103.318,-14.899,-23.966,0,0,0
1422629567720,-3.472,2.516,7.9,-8.3,-14.7,-35.7,103.213,-15.091,-23.247,0,0,0
1422629567820,-4.439,2.247,8.244,-8.3,-13.7,-36.1,102.217,-13.494,-27.448,0,0,0
1422629567921,-3.96,2.085,10.169,-9.1,-13.1,-36.1,103.323,-11.692,-26.577,0,0,0
1422629568020,-2.792,2.391,8.762,-10,-13.6,-36.1,102.084,-14.57,-17.086,0,0,0
1422629568118,-2.974,2.315,8.513,-10,-14.7,-36.1,104.441,-14.395,-18.631,0,0,0
1422629568220,-3.625,2.458,8.484,-9.5,-16,-36.1,108.37,-13.27,-22.352,0,0,0
1422629568320,-4.372,2.324,7.976,-9.5,-16.7,-36.1,106.468,-14.328,-27.758,0,0,0
1422629568420,-4.458,2.554,8.685,-9.5,-16.7,-36.1,105.439,-15.145,-27.462,0,0,0
1422629568520,-4.065,2.621,8.618,-10.5,-15.8,-35.7,104.152,-15.374,-24.298,0,0,0
1422629568621,-3.338,2.362,8.446,-11.1,-15,-35.7,102.502,-15.646,-21.972,0,0,0
1422629568720,-3.491,2.2,8.819,-11.9,-14.1,-35.7,104.21,-13.059,-21.008,0,0,0
1422629568820,-3.012,2.056,9.652,-12.4,-13.1,-35.7,105.083,-11.488,-16.971,0,0,0
1422629568920,-2.428,2.382,9.413,-13,-12,-35.7,99.143,-13.669,-15.136,0,0,0
1422629569020,-2.821,2.104,9.796,-13,-11.3,-35.7,100.624,-11.658,-15.72,0,0,0
1422629569118,-2.926,2.104,9.489,-13.5,-11.3,-35.7,99.978,-11.949,-15.83,0,0,0
1422629569220,-2.639,2.295,9.24,-13.5,-11.3,-35.3,98.035,-13.428,-15.488,0,0,0
1422629569321,-2.677,2.458,9.221,-13.5,-11.7,-35.3,97.565,-14.325,-15.717,0,0,0
1422629569420,-2.821,2.468,9.02,-13.5,-11.7,-35.3,97.005,-14.626,-16.786,0,0,0
1422629569521,-3.022,2.468,9.183,-13.9,-11.7,-35.3,97.309,-14.314,-17.63,0,0,0
1422629569619,-2.897,2.42,8.982,-13.9,-12.1,-35.3,99.104,-13.525,-18.998,0,0,0
1422629569720,-2.916,2.439,9.183,-13.9,-12.5,-34.9,99.516,-14.2,-17.058,0,0,0
1422629569818,-2.868,2.487,8.953,-13.9,-12.5,-34.9,99.891,-13.978,-16.68,0,0,0
1422629569920,-3.012,2.42,9.154,-13.9,-12.5,-34.9,99.584,-14.094,-17.643,0,0,0
1422629570021,-2.773,2.563,9.317,-14.3,-12.5,-34.9,97.962,-15.279,-16.295,0,0,0
1422629570120,-2.753,2.535,9.365,-14.3,-12.5,-34.5,99.334,-14.552,-15.842,0,0,0
1422629570220,-2.619,2.688,9.039,-14.3,-12.5,-34.5,97.358,-15.937,-15.526,0,0,0
1422629570320,-3.213,2.745,9.221,-14.3,-12.5,-34.5,96.859,-16.204,-17.016,0,0,0
1422629570420,-3.165,2.688,9.585,-14.3,-12.1,-34.5,97.768,-14.906,-17.633,0,0,0
1422629570520,-2.332,3.004,8.13,-14.7,-12.1,-34.5,93.86,-17.694,-14.294,0,0,0
1422629570620,-2.38,3.253,9.001,-14.7,-11.6,-34.5,90.289,-19.261,-13.967,0,0,0
1422629570721,-2.763,2.669,9.949,-15.2,-11.6,-34.5,96.695,-14.774,-17.276,0,0,0
1422629570820,-2.399,2.879,9.403,-16.9,-10.7,-34.5,92.232,-16.528,-13.707,0,0,0
1422629570920,-2.437,1.999,9.652,-18.6,-7.9,-34.5,92.875,-11.346,-13.894,0,0,0
1422629571020,-0.934,2.286,10.543,-19.3,-5.6,-34.1,78.491,-17.439,-6.081,0,0,0
1422629571120,-0.187,2.525,10.504,-20.2,-7.4,-34.1,87.729,-13.517,-0.988,0,0,0
1422629571220,5.578,4.479,12.956,-19.6,-20,-28.1,126.119,-17.907,10.732,0,0,0
1422629571320,1.278,2.018,1.359,-11.4,-37.8,-13.4,203.385,-47.265,27.729,0,0,0
1422629571421,-5.684,0.974,7.086,-1.6,-41.9,-10.9,163.52,-18.817,-30.588,0,0,0
1422629571520,-6.239,0.208,13.731,-0.6,-41,-13.7,171.283,-0.786,-24.432,0,0,0
1422629571620,-4.41,1.491,10.275,-2.8,-40,-14.7,166.211,-7.597,-23.019,0,0,0
1422629571720,-0.513,4.641,7.469,-6.4,-38.1,-16.8,160.894,-21.321,-9.381,0,0,0
1422629571820,-0.589,4.766,8.484,-8.9,-35.2,-19.9,153.448,-29.272,-3.458,0,0,0
1422629571922,-0.254,4.747,9.279,-11,-32.3,-22,144.661,-28.964,-3.318,0,0,0
1422629572020,-0.608,4.048,9.824,-12.1,-30.7,-22.9,145.353,-22.352,-3.276,0,0,0
1422629572121,-0.934,3.55,9.777,-13.2,-29.6,-23.8,140.73,-22.057,-4.167,0,0,0
1422629572220,-1.078,3.54,9.24,-13.2,-28.7,-24.8,138.175,-20.832,-6.215,0,0,0
1422629572320,-1.135,3.272,9.643,-13.7,-27.6,-25.4,137.147,-18.618,-6.359,0,0,0
1422629572420,-1.212,3.205,9.757,-14.4,-27.2,-25,136.21,-18.692,-5.721,0,0,0
1422629572520,-1.279,3.071,9.499,-14.4,-27.2,-25,135.915,-17.76,-7.296,0,0,0
1422629572620,-1.164,2.908,9.604,-15.2,-26.6,-25.8,133.629,-16.749,-8.182,0,0,0
1422629572720,-1.059,3.042,9.652,-15.2,-26.6,-25,135.04,-17.395,-5.963,0,0,0
1422629572821,-1.049,3.205,9.623,-16.4,-26,-24.4,131.91,-17.971,-6.512,0,0,0
1422629572920,-0.695,3.138,10.169,-17.3,-26,-25.1,132.651,-17.11,-3.733,0,0,0
1422629573020,-0.34,3.387,9.269,-17.3,-25.4,-24.3,130.542,-20.056,-1.973,0,0,0
1422629573120,-0.359,3.397,8.991,-18.3,-25.4,-24.3,128.664,-20.561,-2.033,0,0,0
1422629573220,-0.063,3.531,8.905,-18.3,-25,-24.3,127.939,-21.616,-0.368,0,0,0
1422629573320,-0.446,3.406,8.647,-17.9,-25,-24.3,128.839,-21.607,0.073,0,0,0
1422629573420,-0.704,3.224,9.01,-17.9,-25,-24.3,128.201,-19.636,-4.199,0,0,0
1422629573521,-0.168,3.377,8.876,-17.9,-25,-24.3,130.19,-18.142,-3.23,0,0,0
1422629573620,-0.273,3.54,8.982,-17.9,-25,-24.3,127.845,-21.499,-1.616,0,0,0
1422629573720,-0.465,3.464,9.508,-17.9,-25.5,-24.3,129.637,-19.996,-2.619,0,0,0
1422629573821,-0.417,3.636,9.384,-17.4,-25.5,-24.3,130.286,-20.287,-2.346,0,0,0
1422629573920,-0.905,3.502,9.604,-17,-26.1,-24.3,130.316,-19.944,-5.06,0,0,0
1422629574020,-1.968,2.812,10.696,-17,-26.1,-24.7,131.692,-16.281,-7.936,0,0,0
1422629574120,-1.556,2.688,11.452,-17.4,-26.1,-24.7,133.951,-13.092,-7.539,0,0,0
1422629574221,0.416,3.837,7.134,-16.8,-25.6,-24.7,137.847,-22.176,7.678,0,0,0
1422629574320,-1.461,3.368,5.697,-16.2,-25.6,-24.7,115.82,-29.799,-12.446,0,0,0
1422629574420,-2.753,3.387,6.157,-16.8,-25.6,-24.7,116.291,-26.659,-21.396,0,0,0
1422629574520,-3.318,3.119,11.232,-17.2,-25.6,-24.7,122.177,-21.454,-17.162,0,0,0
1422629574670,-0.733,4.163,9.489,-17.2,-25.2,-24.7,126.439,-19.833,-8.555,0,0,0
1422629574719,-0.628,3.655,8.867,-17.2,-24.1,-25.1,122.493,-23.622,-4.036,0,0,0
1422629574819,-0.599,3.626,8.79,-17.2,-23.1,-25.8,121.664,-22.369,-3.6,0,0,0
1422629574921,-1.825,3.377,9.518,-17.2,-22.2,-26.3,118.239,-21.863,-7.187,0,0,0
1422629575020,-2.016,3.272,9.633,-17.2,-21.3,-26.3,118.803,-18.385,-11.206,0,0,0
1422629575120,-1.815,3.32,9.748,-17.2,-20.3,-27,116.686,-18.516,-9.997,0,0,0
1422629575222,-1.116,3.579,9.547,-17.2,-19.5,-27,112.747,-21.274,-7.456,0,0,0
1422629575320,-1.001,3.684,9.374,-17.2,-19,-27,112.172,-21.34,-5.668,0,0,0
1422629575430,-1.327,3.473,9.394,-17.6,-18.5,-27,112.229,-19.814,-6.929,0,0,0
1422629575518,-1.327,3.368,9.441,-17.6,-18.5,-27,112.474,-19.454,-7.532,0,0,0
1422629575620,-1.231,3.55,9.413,-18.3,-18.1,-27,109.445,-20.991,-6.667,0,0,0
1422629575718,-1.145,3.674,9.346,-18.3,-17.5,-27,107.646,-21.321,-6.493,0,0,0
1422629575820,-1.269,3.502,9.374,-19.3,-17.1,-27,107.217,-20.307,-7.222,0,0,0
1422629575920,-1.604,3.464,8.627,-20,-16.5,-27,105.606,-20.331,-5.73,0,0,0
1422629576021,-2.38,2.707,9.03,-21.3,-13.3,-27.4,101.765,-16.157,-14.169,0,0,0
1422629576120,-1.853,2.592,8.819,-23.1,-7.3,-27.4,92.682,-12.97,-5.045,0,0,0
1422629576220,-0.465,2.736,9.633,-24.3,-0.7,-27.8,75.028,-15.83,-2.647,0,0,0
1422629576321,-0.685,1.893,10.667,-25.2,5.9,-28.2,60.381,-18.836,-1.177,0,0,0
1422629576420,0.11,2.305,9.844,-24.1,10,-29.6,55.237,-13.174,0.613,0,0,0
1422629576520,-0.111,1.165,9.374,-22.4,13.2,-31,53.407,-7.086,-0.658,0,0,0
1422629576620,-0.13,2.094,8.838,-21.1,17.6,-32.5,42.386,-9.557,0.529,0,0,0
1422629576720,0.981,2.324,10.102,-18.6,19.5,-34.4,29.951,-12.891,5.405,0,0,0
1422629576820,-0.292,2.066,9.604,-17.6,21.8,-35,30.419,-14.65,-0.025,0,0,0
1422629576920,-0.57,1.97,10.591,-17.6,21.8,-35,34.812,-10.514,-3.025,0,0,0
1422629577021,-0.465,1.912,9.422,-18,18.9,-36.1,38.805,-11.002,-4.046,0,0,0
1422629577120,-0.695,1.893,9.767,-18,17.9,-36.1,39.951,-10.939,-3.992,0,0,0
1422629577220,-0.953,2.247,9.959,-18.6,17.9,-36.1,40.802,-12.661,-5.331,0,0,0
1422629577320,-1.365,2.257,9.844,-19.1,15.9,-36.1,46.404,-10.064,-6.433,0,0,0
1422629577420,-1.729,2.219,9.949,-19.1,14.5,-36.1,48.789,-12.391,-9.626,0,0,0
1422629577520,-2.102,2.228,9.575,-19.1,13.6,-36.1,50.487,-12.964,-11.057,0,0,0
1422629577620,-1.949,2.2,9.317,-19.1,13.6,-36.1,50.733,-13.014,-11.503,0,0,0
1422629577721,-2.064,1.874,9.528,-19.1,14.5,-36.1,50.141,-12.151,-11.445,0,0,0
1422629577820,-2.026,1.654,9.566,-18.5,16,-36.1,49.497,-9.596,-11.788,0,0,0
1422629577920,-1.987,1.596,9.585,-19.5,18.8,-35.5,47.337,-9.257,-11.556,0,0,0
1422629578020,0.138,1.989,9.777,-19.5,21.3,-35.1,39.409,-10.031,-4.674,0,0,0
1422629578121,0.234,2.171,10.169,-19.1,22,-35.1,32.507,-12.04,1.285,0,0,0
1422629578220,-0.675,2.075,10.418,-19.1,20.7,-35.5,36.122,-11.014,-1.051,0,0,0
1422629578320,-1.001,2.085,10.169,-18.5,18.8,-35.5,40.536,-11.522,-5.499,0,0,0
1422629578421,-1.413,1.74,9.92,-18.5,17.3,-36,43.636,-10.98,-7.047,0,0,0
1422629578520,-1.068,2.018,9.135,-18.5,16.6,-36,43.221,-12.373,-6.507,0,0,0
1422629578620,-0.819,2.075,9.518,-18.1,16.6,-36,41.44,-12.255,-4.795,0,0,0
1422629578720,-0.752,2.899,8.723,-18.1,14.3,-36,45.249,-11.231,-4.96,0,0,0
1422629578820,-1.375,2.774,8.474,-18.1,13.4,-36.4,44.562,-17.905,-8.763,0,0,0
1422629578918,-1.231,2.966,9.748,-18.1,11.8,-36.4,47.823,-15.461,-8.231,0,0,0
1422629579020,-1.346,2.439,9.336,-18.1,10.3,-36.4,50.55,-14.489,-7.94,0,0,0
1422629579121,-0.599,2.382,10.772,-18.5,8.7,-36.4,49.202,-15.028,-3.183,0,0,0
1422629579220,-0.484,3.54,8.082,-18.5,6.5,-36.4,45.15,-23.613,-3.136,0,0,0
1422629579320,-1.212,3.425,9.566,-18.5,4.6,-36.4,54.573,-19.556,-6.795,0,0,0
1422629579420,-2.016,2.65,9.298,-19,2.5,-36,63.574,-16.77,-9.613,0,0,0
1422629579520,-1.786,2.602,9.039,-19.4,2.5,-36,65.633,-15.766,-10.752,0,0,0
1422629579620,-1.126,3.291,9.518,-19.9,2.1,-36,66.953,-14.894,-9.364,0,0,0
1422629579724,-0.905,3.339,9.604,-19.9,2.1,-36,59.683,-19.093,-5.089,0,0,0
1422629579819,-1.126,2.994,9.69,-20.3,1.7,-35.6,61.691,-18.923,-5.831,0,0,0
1422629579921,-1.039,3.196,9.585,-20.7,1.7,-35.6,62.721,-18.336,-5.868,0,0,0
1422629580024,-0.924,3.224,8.982,-20.7,2.1,-35.6,60.454,-19.652,-5.529,0,0,0
1422629580120,-0.857,3.473,9.154,-20.7,2.1,-35.6,56.931,-21.897,-3.798,0,0,0
1422629580220,-1.566,3.167,10.313,-21.3,2.1,-35,65.854,-16.886,-8.254,0,0,0
1422629580320,-1.949,2.602,8.943,-21.3,3.3,-35,69.653,-13.589,-13.796,0,0,0
1422629580420,-1.097,2.793,9.288,-21.3,6,-35,58.492,-16.622,-6.447,0,0,0
1422629580521,-0.944,2.592,9.738,-20.6,9.4,-35,51.354,-18.115,-6.658,0,0,0
1422629580645,-1.413,2.956,8.57,-20.6,12.1,-35,48.834,-18.793,-8.848,0,0,0
1422629580719,-0.417,2.506,9.872,-20.6,14.8,-35,43.792,-14.227,-2.337,0,0,0
1422629580821,-1.02,2.506,9.508,-20.6,16.5,-35,41.036,-14.516,-1.56,0,0,0
1422629580920,-0.637,2.736,9.69,-20.6,18.1,-35,40.142,-15.728,-3.621,0,0,0
1422629581019,-0.206,2.832,8.407,-20.6,18.5,-35,39.216,-14.646,-2.138,0,0,0
1422629581119,0.062,3.148,9.786,-20.6,17.5,-35,36.63,-17.824,0.34,0,0,0
1422629581221,0.081,3.473,7.718,-20.6,18.3,-35,34.913,-19.246,0.771,0,0,0
1422629581320,0.225,3.464,9.547,-20.6,18.3,-35,34.215,-19.937,1.259,0,0,0
1422629581420,0.368,3.971,9.221,-20.6,17.1,-35,33.127,-23.285,2.089,0,0,0
1422629581519,-0.312,4,10.083,-20.1,16.2,-35,35.875,-23.21,-0.973,0,0,0
1422629581620,-0.235,3.033,11.357,-18.9,16.2,-35,38.415,-14.941,-1.137,0,0,0
1422629581721,-1.288,1.529,9.671,-17.3,14.9,-35,40.6,-11.386,-1.833,0,0,0
1422629581821,-1.499,1.587,9.049,-16,14,-35.5,47.433,-9.807,-9.257,0,0,0
1422629581921,-1.25,2.037,9.25,-15.4,14,-35.9,45.69,-11.658,-10.061,0,0,0
1422629582020,-1.145,2.209,9.508,-14.7,14,-36.3,40.687,-12.984,-6.678,0,0,0
1422629582119,-1.068,2.305,9.978,-14.7,14,-36.3,40.053,-12.934,-5.949,0,0,0
1422629582220,-1.279,2.698,8.982,-14.7,13.5,-36.3,40.748,-12.418,-5.556,0,0,0
1422629582319,-1.624,2.717,9.681,-13.6,13.1,-36.3,40.701,-15.47,-9.167,0,0,0
1422629582421,-1.461,2.439,9.202,-14,13.1,-36.7,44.282,-13.978,-11.49,0,0,0
1422629582520,-1.355,2.678,9.173,-14,13.1,-36.7,39.813,-16.104,-8.063,0,0,0
1422629582619,-1.202,2.525,9.48,-15.2,13.1,-36.7,45.105,-13.37,-9.952,0,0,0
1422629582721,-1.039,2.592,9.882,-15.8,13.1,-36.7,41.541,-14.615,-5.805,0,0,0
1422629582821,-0.819,2.535,10.255,-15.4,13.1,-36.7,40.236,-13.838,-4.423,0,0,0
1422629582920,-0.599,2.707,9.71,-16.1,13.1,-36.7,40.26,-14.101,-3.612,0,0,0
1422629583021,-0.532,2.669,9.633,-16.1,13.1,-36.7,38.721,-15.463,-3.037,0,0,0
1422629583119,-0.8,2.592,9.652,-16.1,13.1,-37.1,39.624,-15.361,-3.994,0,0,0
1422629583221,-0.857,2.64,9.537,-16.1,12.2,-37.1,41.62,-15.416,-4.944,0,0,0
1422629583319,-0.771,2.736,9.777,-16.1,12.6,-37.1,40.634,-15.964,-4.844,0,0,0
1422629583421,-0.733,2.812,9.566,-15.5,12.6,-37.1,38.964,-16.341,-4.196,0,0,0
1422629583519,-0.762,2.879,9.508,-15.5,12.6,-37.1,38.815,-16.802,-4.374,0,0,0
1422629583620,-0.762,2.86,9.451,-15.5,12.6,-37.1,39.214,-16.365,-4.473,0,0,0
1422629583722,-0.819,2.87,9.671,-15.5,12.6,-37.1,39.294,-16.472,-4.632,0,0,0
1422629583819,-0.704,2.803,9.489,-15.9,12.2,-37.1,40.136,-16.283,-4.255,0,0,0
1422629583920,-0.838,2.947,9.499,-15.9,12.2,-37.1,40.038,-17.162,-4.815,0,0,0
1422629584021,-0.618,2.966,9.451,-15.9,11.7,-37.1,40.347,-17.373,-4.627,0,0,0
1422629584119,-0.637,2.947,9.413,-15.9,11.7,-36.7,39.583,-17.338,-3.696,0,0,0
1422629584220,-0.675,3.014,9.528,-15.9,11.3,-36.7,40.1,-17.507,-3.857,0,0,0
1422629584320,-0.561,2.966,9.547,-15.9,11.3,-36.7,39.398,-17.643,-3.239,0,0,0
1422629584420,-0.551,3.061,9.25,-16.3,11.3,-36.7,39.556,-18.277,-3.237,0,0,0
1422629584519,-0.484,3.042,9.413,-16.3,10.9,-36.3,39.73,-17.99,-2.594,0,0,0
1422629584623,-0.417,3.023,9.25,-16.7,10.9,-36.3,40.123,-18.083,-2.446,0,0,0
1422629584722,-0.465,3.052,9.279,-16.7,10.9,-36.3,40.789,-17.852,-2.958,0,0,0
1422629584818,-0.474,3.042,9.317,-16.7,10.5,-36.3,40.941,-18.06,-2.764,0,0,0
1422629584920,-0.436,3.052,9.164,-16.7,10.5,-36.3,40.506,-18.402,-2.574,0,0,0
1422629585020,-0.474,3.138,9.231,-17.1,10.5,-36.3,40.988,-18.28,-2.367,0,0,0
1422629585119,-0.388,3.081,9.441,-17.1,10.1,-36.3,41.689,-18.058,-2.232,0,0,0
1422629585220,-0.34,3.052,9.508,-17.1,10.1,-36.3,41.312,-18.634,-2.287,0,0,0
1422629585320,-0.541,3.138,9.145,-17.1,10.1,-35.9,42.129,-18.909,-3.202,0,0,0
1422629585421,-0.484,3.081,9.298,-17.1,10.1,-35.9,42.024,-18.69,-2.92,0,0,0
1422629585523,-0.417,3.052,9.25,-17.1,10.1,-35.9,41.895,-18.245,-2.444,0,0,0
1422629585620,-0.398,3.167,9.279,-17.1,10.1,-35.9,41.347,-18.83,-2.321,0,0,0
1422629585720,-0.388,3.176,9.327,-17.1,10.1,-35.9,40.841,-19.059,-1.973,0,0,0
1422629585820,-0.532,3.157,9.432,-17.1,9.7,-35.9,42.817,-18.478,-3.053,0,0,0
1422629585919,-0.58,3.109,9.422,-17.5,9.7,-35.9,43.498,-18.343,-3.05,0,0,0
1422629586018,-0.541,3.167,9.346,-17.5,9.7,-35.9,43.316,-18.688,-3.136,0,0,0
1422629586121,-0.446,3.148,9.374,-17.5,9.7,-35.9,43.58,-18.525,-3.286,0,0,0
1422629586220,-0.474,3.167,9.327,-17.5,9.7,-35.9,42.92,-18.736,-2.75,0,0,0
1422629586320,-0.503,3.196,9.365,-17.5,9.7,-35.9,43.002,-18.815,-2.903,0,0,0
1422629586420,-0.474,3.138,9.307,-17.5,9.7,-35.9,42.87,-18.782,-2.733,0,0,0
1422629586520,-0.484,3.176,9.355,-17.5,9.7,-35.9,42.976,-18.725,-2.801,0,0,0
1422629586621,-0.503,3.205,9.489,-17.5,9.7,-35.9,42.524,-19.441,-2.883,0,0,0
1422629586720,-0.446,3.205,9.183,-17.5,9.7,-35.9,42.44,-19.215,-2.617,0,0,0
1422629586821,-0.436,3.291,9.212,-17.5,9.7,-35.9,42.901,-19.119,-3.032,0,0,0
1422629586920,-0.675,3.215,9.355,-17.5,9.7,-35.9,43.848,-18.915,-3.897,0,0,0
1422629587021,-0.608,3.215,9.585,-17.5,9.7,-35.9,43.745,-18.503,-3.444,0,0,0
1422629587121,-0.743,3.081,9.461,-17.5,9.7,-35.9,43.935,-18.872,-3.959,0,0,0
1422629587218,-0.675,3.138,9.394,-17.5,9.7,-35.9,44.209,-18.43,-3.892,0,0,0
1422629587318,-0.494,3.138,9.489,-17.5,9.7,-35.9,43.496,-18.923,-3.519,0,0,0
1422629587418,-0.245,3.176,8.694,-17.1,10.1,-35.9,39.686,-20.054,-1.508,0,0,0
1422629587519,0.071,2.889,8.618,-17.1,10.1,-35.9,39.092,-19.344,-0.432,0,0,0
1422629587620,0.263,2.822,8.503,-17.1,10.1,-35.9,37.546,-18.345,1.675,0,0,0
1422629587718,0.349,2.947,8.13,-17.1,10.1,-35.9,35.77,-19.903,2.305,0,0,0
1422629587820,1.604,2.803,9.269,-17.1,10.6,-35.9,31.403,-18.941,6.034,0,0,0
1422629587918,2.111,2.832,10.045,-17.1,11.1,-35.9,25.615,-15.419,11.428,0,0,0
1422629588018,1.766,3.033,11.539,-17.1,14,-35.9,24.434,-11.956,11.637,0,0,0
1422629588118,0.033,2.563,8.867,-17.1,17.9,-35.9,32.002,-16.119,0.202,0,0,0
1422629588221,-0.934,3.818,9.633,-17.1,20,-35.9,30.518,-22.408,-3.284,0,0,0
1422629588320,-1.738,2.87,9.403,-17.1,19.3,-35.9,38.54,-16.704,-10.02,0,0,0
1422629588420,-1.595,2.611,8.359,-17.1,18.3,-35.9,39.575,-17.064,-10.315,0,0,0
1422629588520,-1.193,2.391,9.528,-15.7,18.3,-35.9,37.437,-13.793,-7.49,0,0,0
1422629588620,-0.953,2.755,9.346,-15.7,18.3,-35.9,34.505,-16.346,-5.584,0,0,0
1422629588719,-1.365,2.803,10.543,-15.2,17.5,-35.9,33.7,-16.824,-4.929,0,0,0
1422629588819,-1.643,2.707,9.518,-15.2,16.8,-35.9,38.675,-15.65,-9.426,0,0,0
1422629588922,-1.145,2.774,9.959,-14.6,16,-35.9,37.199,-15.975,-7.687,0,0,0
1422629589020,-0.877,2.803,9.413,-14.6,16,-36.3,34.591,-16.509,-5.101,0,0,0
1422629589118,-1.03,3.023,9.623,-14.6,16,-36.3,34.765,-17.351,-5.821,0,0,0
1422629589220,-0.618,3.004,9.24,-14.6,16,-36.3,34.126,-17.119,-4.96,0,0,0
1422629589321,-0.503,2.947,9.432,-14.6,15.2,-36.3,32.999,-17.32,-2.908,0,0,0
1422629589420,-0.848,3.128,9.413,-14.6,15.2,-36.3,33.377,-17.578,-3.449,0,0,0
1422629589521,-0.714,3.014,9.24,-15.1,15.7,-36.3,33.923,-18.012,-4.196,0,0,0
1422629589622,-0.187,3.071,9.058,-15.1,15.7,-36.7,33.257,-18.323,-3.74,0,0,0
1422629589720,-0.158,3.071,9.116,-15.1,16.1,-36.7,30.086,-18.61,-0.94,0,0,0
1422629589882,-0.446,3.119,9.422,-15.1,16.1,-36.7,31.135,-18.605,-2.017,0,0,0
1422629589919,-0.494,3.119,9.633,-14.6,16.1,-36.7,31.206,-18.29,-2.565,0,0,0
1422629590021,-0.359,3.157,9.173,-14.6,16.1,-36.7,30.441,-18.976,-2.117,0,0,0
1422629590118,-0.417,3.176,9.231,-14.6,16.1,-37.1,29.897,-18.786,-1.56,0,0,0
1422629590220,-0.388,3.205,9.259,-14.6,16.1,-37.1,30.445,-19.069,-2.262,0,0,0
1422629590321,-0.178,3.071,9.001,-14.6,16.1,-37.1,30.725,-19.202,-2.622,0,0,0
1422629590420,-0.292,3.215,9.317,-14.6,16.1,-37.1,29.912,-19.02,-1.69,0,0,0
1422629590520,-0.465,3.196,9.259,-14.6,15.7,-37.1,31.242,-19.018,-2.706,0,0,0
1422629590621,-0.34,3.09,9.212,-14.6,15.7,-37.1,31.783,-18.653,-3.081,0,0,0
1422629590721,-0.436,3.157,9.279,-14.6,15.7,-37.1,31.2,-18.771,-2.537,0,0,0
1422629590820,-0.35,3.119,9.221,-14.6,15.3,-37.1,30.947,-18.98,-2.026,0,0,0
1422629590920,-0.254,3.119,9.231,-14.6,15.3,-37.1,30.581,-18.655,-1.492,0,0,0
1422629591021,-0.264,3.138,9.106,-14.6,15.3,-37.1,30.893,-19.026,-1.994,0,0,0
1422629591120,-0.312,3.081,9.231,-15,15.3,-37.1,31.647,-18.446,-1.831,0,0,0
1422629591220,-0.292,3.081,9.116,-15,15.3,-37.1,31.435,-18.662,-1.732,0,0,0
1422629591320,-0.35,3.186,9.183,-15,15.3,-37.1,31.611,-18.605,-1.879,0,0,0
1422629591421,-0.283,3.148,9.183,-15,15.3,-37.1,31.249,-18.908,-1.669,0,0,0
1422629591518,-0.34,3.109,9.192,-15,15.3,-37.1,31.362,-19.041,-1.854,0,0,0
1422629591621,-0.359,3.157,9.202,-15,15.3,-37.1,31.675,-18.917,-2.11,0,0,0
1422629591721,-0.283,3.205,9.202,-15,15.3,-37.1,31.59,-18.751,-1.935,0,0,0
1422629591821,-0.312,3.138,9.231,-15,15.3,-37.1,31.48,-18.765,-1.828,0,0,0
1422629591920,-0.34,3.148,9.087,-15,15.3,-37.1,31.507,-19.083,-2.024,0,0,0
1422629592020,-0.321,3.157,9.173,-15,15.3,-37.1,31.532,-18.725,-1.861,0,0,0
1422629592120,-0.321,3.138,9.145,-15,15.3,-37.1,31.459,-18.926,-1.893,0,0,0
1422629592220,-0.292,3.148,9.164,-15,15.3,-37.1,31.505,-18.808,-1.877,0,0,0
1422629592318,-0.379,3.157,9.202,-15,15.3,-37.1,31.781,-18.917,-2.218,0,0,0
1422629592418,-0.292,3.138,9.173,-15,15.3,-37.1,31.312,-18.878,-1.718,0,0,0
1422629592518,-0.379,3.176,9.221,-15,15.3,-37.1,31.741,-18.987,-2.213,0,0,0
1422629592620,-0.34,3.157,9.183,-15,15.3,-37.1,31.551,-18.959,-2.005,0,0,0
1422629592720,-0.369,3.138,9.125,-15,15.3,-37.1,31.591,-18.961,-2.047,0,0,0
1422629592820,-0.407,3.186,9.212,-15,15.3,-37.1,31.867,-19.059,-2.383,0,0,0
1422629592919,-0.369,3.224,9.327,-15,15.3,-37.1,31.716,-18.933,-2.159,0,0,0
1422629593018,-0.551,3.339,9.212,-15,15.3,-37.1,32.24,-19.894,-3.219,0,0,0
1422629593118,-0.398,3.109,9.231,-15,15.3,-37.1,32.059,-18.601,-2.335,0,0,0
1422629593220,-0.513,3.243,9.508,-15,15.3,-37.1,32.515,-18.808,-2.918,0,0,0
1422629593321,-0.589,3.282,9.298,-15,15.3,-37.1,32.668,-19.408,-3.412,0,0,0
1422629593423,-0.781,3.243,9.327,-15,15.3,-37.1,34.017,-19.105,-4.702,0,0,0
1422629593521,-0.312,3.263,8.685,-15,15.3,-37.1,30.672,-20.583,-1.922,0,0,0
1422629593621,0.244,3.828,9.24,-15,15.3,-37.1,28.474,-22.151,-0.389,0,0,0
1422629593721,-0.216,4.134,9.48,-15,15.3,-37.1,28.657,-23.557,-1.191,0,0,0
1422629593821,0.004,3.502,8.79,-15,15.3,-37.1,26.179,-25.592,0.596,0,0,0
1422629593921,0.11,3.751,8.493,-15,15.3,-37.1,26.761,-23.823,0.669,0,0,0
1422629594021,-0.187,4.201,8.781,-15,15.3,-37.1,27.783,-25.562,-1.097,0,0,0
1422629594121,0.234,4.287,9.499,-15,15.3,-37.1,27.232,-24.234,0.02,0,0,0
1422629594221,0.263,3.224,10.753,-15,15.3,-37.1,29.27,-16.685,1.337,0,0,0
1422629594321,-0.79,1.884,9.327,-15,15.3,-37.1,29.404,-13.919,2.559,0,0,0
1422629594421,-1.164,1.893,9.623,-15,15.3,-37.1,41.068,-11.05,-6.766,0,0,0
1422629594521,-0.666,2.41,8.781,-15,15.3,-37.1,38.334,-12.101,-4.667,0,0,0
1422629594621,-0.781,2.506,9.259,-14.4,15.3,-37.1,35.304,-15.089,-4.651,0,0,0
1422629594721,-0.992,2.554,10.447,-13.7,15.7,-37.5,35.301,-13.679,-5.266,0,0,0
1422629594827,-0.628,3.071,9.183,-13.7,15.7,-37.5,31.818,-16.863,-3.684,0,0,0
1422629594969,-0.867,2.985,10.37,-13.7,15.7,-37.5,32.387,-16.241,-3.904,0,0,0
1422629595019,-0.762,3.014,8.675,-13.2,15.7,-37.5,32.373,-16.002,-4.59,0,0,0
1422629595121,-0.944,3.109,9.786,-13.2,15.7,-37.9,32.066,-17.551,-5.243,0,0,0
1422629595221,-0.637,3.071,9.154,-13.2,15.7,-37.9,30.871,-17.762,-4.145,0,0,0
1422629595321,-0.743,3.224,9.652,-13.2,15.7,-37.9,30.547,-18.42,-4.167,0,0,0
1422629595421,-0.704,3.263,9.528,-13.2,15.7,-37.9,30.146,-18.856,-3.99,0,0,0
1422629595519,-0.427,3.09,9.212,-13.2,15.7,-38.3,29.905,-18.775,-3.777,0,0,0
1422629595621,-0.398,3.081,9.212,-13.2,15.7,-38.3,28.584,-18.48,-2.342,0,0,0
1422629595720,-0.149,3.119,9.068,-13.2,15.7,-38.3,27.139,-18.655,-1.057,0,0,0
1422629595821,-0.12,3.128,8.972,-13.2,15.7,-38.3,26.511,-19.222,-0.716,0,0,0
1422629595921,-0.13,3.09,8.905,-12.8,15.7,-38.3,25.881,-18.743,-0.534,0,0,0
1422629596021,-0.043,2.966,9.058,-12.8,15.7,-38.3,25.855,-18.128,-0.258,0,0,0
1422629596121,-0.015,3.033,9.03,-12.8,15.7,-38.3,25.47,-18.559,-0.086,0,0,0
1422629596220,-0.091,3.148,9.068,-12.8,15.7,-38.3,25.511,-19.011,-0.306,0,0,0
1422629596324,-0.111,3.109,9.135,-12.8,15.7,-38.3,25.977,-18.797,-0.644,0,0,0
1422629596419,-0.187,3.157,9.164,-12.8,15.7,-38.3,26.013,-19.146,-0.822,0,0,0
1422629596521,-0.024,3.291,8.924,-12.8,15.7,-38.3,24.791,-20.25,-0.135,0,0,0
1422629596621,-0.034,3.243,8.867,-12.8,15.7,-38.3,24.751,-19.935,0.022,0,0,0
1422629596721,-0.053,3.253,8.867,-13.2,15.7,-38.3,25.668,-20.145,-0.31,0,0,0
1422629596821,-0.13,3.282,9.058,-13.2,15.7,-38.3,26.256,-19.911,-0.766,0,0,0
1422629596921,0.024,3.272,8.905,-13.2,15.7,-38.3,25.472,-20.169,-0.135,0,0,0
1422629597021,-0.149,3.253,9.01,-13.2,15.7,-38.3,26.407,-19.847,-0.882,0,0,0
1422629597122,-0.082,3.33,9.058,-13.2,15.7,-38.3,25.767,-19.926,-0.312,0,0,0
1422629597218,-0.063,3.33,8.896,-13.6,15.7,-38.3,26.211,-20.514,-0.369,0,0,0
1422629597319,-0.111,3.224,8.915,-13.6,15.7,-38.3,26.609,-20.168,-0.602,0,0,0
1422629597419,-0.101,3.282,9.001,-13.6,15.7,-38.3,26.666,-20.03,-0.6,0,0,0
1422629597518,-0.091,3.397,8.934,-13.6,15.7,-38.3,26.263,-20.813,-0.539,0,0,0
1422629597621,-0.082,3.32,8.905,-13.6,15.7,-38.3,26.846,-20.03,-0.772,0,0,0
1422629597721,-0.091,3.31,8.915,-13.6,15.7,-38.3,26.457,-20.373,-0.543,0,0,0
1422629597820,-0.206,3.33,8.991,-13.6,15.7,-38.3,26.21,-20.669,-0.432,0,0,0
1422629597921,-0.139,3.387,8.943,-13.6,15.7,-38.3,26.59,-20.738,-0.822,0,0,0
1422629598021,-0.197,3.301,8.809,-13.6,15.7,-38.3,27.127,-20.311,-1.162,0,0,0
1422629598118,-0.292,3.339,9.058,-13.6,15.7,-38.3,27.745,-20.225,-1.725,0,0,0
1422629598219,-0.264,3.349,9.087,-13.6,15.7,-38.3,27.568,-20.222,-1.55,0,0,0
1422629598320,-0.225,3.234,8.934,-13.6,15.7,-38.3,28.176,-20.238,-2.153,0,0,0
1422629598421,-0.762,3.109,8.991,-13.6,15.7,-38.3,31.17,-19.015,-4.567,0,0,0
1422629598521,-0.867,3.167,9.633,-13.6,15.7,-38.3,32.364,-19.291,-5.977,0,0,0
1422629598621,-0.762,3.138,8.886,-13.6,15.7,-38.3,31.022,-19.387,-4.611,0,0,0
1422629598723,-1.518,3.358,8.283,-13.6,15.7,-38.3,31.4,-19.458,-5.045,0,0,0
1422629598845,-1.652,3.751,8.924,-13.6,15.7,-38.3,33.994,-22.454,-9.679,0,0,0
1422629598918,-2.543,3.885,11.759,-13.6,15.7,-38.3,38.037,-17.89,-11.599,0,0,0
1422629599020,-1.738,3.607,12.104,-13.6,15.7,-38.3,36.264,-17.283,-9.046,0,0,0
1422629599120,-0.465,3.703,9.154,-13.6,16.1,-38.3,27.616,-22.002,-2.684,0,0,0
1422629599219,1.067,3.071,7.699,-13.6,16.1,-38.3,23.415,-13.841,4.387,0,0,0
1422629599320,2.044,3.052,9.508,-14,16.1,-38.3,13.428,-17.423,11.569,0,0,0
1422629599420,2.255,2.755,10.686,-16,16.1,-37.9,18.642,-14.16,11.539,0,0,0
1422629599519,1.958,2.669,9.087,-18.5,16.1,-37.3,22.716,-16.019,11.68,0,0,0
1422629599620,1.345,2.439,9.738,-20.1,14.3,-36.1,33.962,-13.924,7.621,0,0,0
1422629599720,-0.637,2.563,8.666,-19.3,13.1,-36.1,41.925,-16.037,-1.611,0,0,0
1422629599818,-0.829,2.889,10.351,-18.4,13.1,-36.1,43.433,-15.543,-4.402,0,0,0
1422629599918,-0.273,2.832,9.097,-16.9,13.5,-36.6,37.142,-17.282,-1.637,0,0,0
1422629600040,0.177,2.87,9.844,-16.4,13.5,-36.6,34.294,-16.252,0.982,0,0,0
1422629600118,0.608,2.956,8.513,-16.4,13.5,-36.6,29.508,-19.104,3.847,0,0,0
1422629600220,-0.111,3.1,9.125,-16.4,13.5,-36.6,34.468,-18.758,-0.646,0,0,0
1422629600321,-0.57,3.128,9.413,-15.7,13.5,-36.6,36.078,-18.347,-3.284,0,0,0
1422629600420,-0.312,3.196,9.078,-15.7,13,-36.6,36.712,-18.275,-3.314,0,0,0
1422629600521,-0.139,3.234,9.03,-15.7,13,-36.6,33.388,-19.704,-0.819,0,0,0
1422629600621,-0.35,3.196,9.106,-15.7,12.6,-36.6,34.272,-20.063,-1.503,0,0,0
1422629600720,-0.417,3.09,9.346,-16.6,12,-36.6,38.431,-18.271,-2.418,0,0,0
1422629600820,-0.618,3.1,9.298,-16.6,11.3,-36.2,40.371,-18.4,-3.6,0,0,0
1422629600920,-0.963,3.33,9.461,-17,10.7,-36.2,42.826,-19.289,-5.482,0,0,0
1422629601020,-0.618,3.253,9.528,-17,10.2,-36.2,42.033,-18.813,-3.505,0,0,0
1422629601118,-0.436,3.272,9.298,-17,10.2,-36.2,41.61,-19.365,-3.475,0,0,0
1422629601220,-0.551,3.358,9.317,-17,10.2,-36.2,41.04,-19.784,-3.184,0,0,0
1422629601324,-0.541,3.215,9.441,-17,10.2,-36.2,40.205,-20.093,-2.533,0,0,0
1422629601419,-0.532,3.291,9.231,-17,10.2,-36.2,41.089,-19.599,-3.099,0,0,0
1422629601520,-0.743,3.186,9.47,-17,9.7,-36.2,43.606,-18.537,-4.245,0,0,0
1422629601622,-0.618,3.291,9.288,-17,9.7,-36.2,42.289,-19.474,-3.58,0,0,0
1422629601720,-0.608,3.32,9.288,-16.6,9.2,-36.2,42.211,-19.63,-3.53,0,0,0
1422629601820,-0.455,3.32,9.087,-16.6,8.7,-36.2,41.815,-20.274,-2.918,0,0,0
1422629601920,-0.474,3.444,9.336,-16.6,8.3,-36.2,42.171,-20.222,-2.722,0,0,0
1422629602021,-0.388,3.512,9.154,-16.6,8.3,-36.2,41.565,-20.453,-2.297,0,0,0
1422629602120,-0.331,3.444,9.03,-16.6,8.3,-36.2,40.912,-20.858,-1.954,0,0,0
1422629602218,-0.321,3.464,9.058,-16.6,8.3,-36.2,40.801,-20.914,-1.887,0,0,0
1422629602320,-0.379,3.502,9.221,-16.6,8.3,-36.2,41.213,-20.776,-2.188,0,0,0
1422629602418,-0.35,3.492,9.058,-17.1,8.3,-36.2,41.67,-21.068,-2.054,0,0,0
1422629602520,-0.321,3.483,9.087,-17.1,8.3,-36.2,42.221,-20.755,-2.372,0,0,0
1422629602620,-0.656,3.483,9.221,-17.1,8.3,-36.2,43.691,-20.643,-3.805,0,0,0
1422629602721,-0.647,3.071,9.001,-17.1,8.3,-36.2,45.352,-18.952,-4.167,0,0,0
1422629602820,-0.273,3.081,9.221,-17.5,7.9,-36.2,44.407,-18.466,-1.604,0,0,0
1422629602920,0.282,3.78,9.307,-17.5,7.9,-36.2,38.173,-22.091,1.6,0,0,0
1422629603018,0.33,3.579,8.915,-17.5,7.9,-36.2,37.928,-21.859,1.965,0,0,0
1422629603120,-0.034,3.042,8.876,-17.5,7.1,-36.2,43.69,-18.915,-0.2,0,0,0
1422629603222,-0.877,3.923,8.829,-17.9,3.2,-36.2,49.903,-22.677,-3.281,0,0,0
1422629603320,-0.963,3.923,8.915,-17.9,0.6,-36.2,55.554,-23.634,-5.645,0,0,0
1422629603421,-1.403,3.789,9.078,-17.9,-1.2,-35.8,63.001,-22,-8.859,0,0,0
1422629603520,-1.25,3.703,9.288,-17.9,-2,-35.8,63.735,-21.56,-7.121,0,0,0
1422629603620,-0.819,4.048,9.02,-18.3,-2.4,-35.8,60.062,-24.079,-4.725,0,0,0
1422629603720,-1.509,3.933,8.8,-18.3,-2.4,-35.8,63.582,-23.777,-8.891,0,0,0
1422629603820,-1.221,3.981,9.078,-18.3,-0.3,-35.4,59.101,-23.489,-7.023,0,0,0
1422629603921,-0.704,3.502,9.614,-18.7,2.2,-35.4,53.328,-24.551,-5.362,0,0,0
1422629604020,-0.178,3.626,9.834,-18.7,5,-35.4,48.832,-20.236,-0.962,0,0,0
1422629604121,-0.417,3.004,9.805,-18.7,7.4,-35.4,44.787,-21.787,-1.623,0,0,0
1422629604220,-0.388,3.33,9.03,-18.7,9.4,-35.4,43.857,-20.218,-2.304,0,0,0
1422629604322,-0.379,3.713,8.627,-18.7,11.2,-35.4,39.771,-23.262,-2.299,0,0,0
1422629604418,0.359,3.808,9.087,-17.8,12.1,-35.4,33.693,-22.721,2.082,0,0,0
1422629604520,-0.292,3.128,9.202,-17.3,12.1,-35.4,38.862,-18.764,-1.714,0,0,0
1422629604620,-0.953,3.243,9.547,-17.3,12.5,-35.4,38.011,-20.755,-2.577,0,0,0
1422629604720,-0.685,3.33,9.106,-16.9,13,-35.4,38.589,-20.026,-4.036,0,0,0
1422629604821,-0.034,3.732,7.986,-16.9,13,-35.8,37.124,-20.839,-3.039,0,0,0
1422629604920,0.56,4.086,8.694,-16.9,14.2,-35.8,28.025,-25.127,3.331,0,0,0
1422629605020,0.598,3.77,9.824,-16.9,15.1,-35.8,29.116,-20.95,3.252,0,0,0
1422629605118,0.119,4.038,8.082,-16.9,14.6,-35.8,29.542,-26.54,0.751,0,0,0
1422629605220,-0.015,4.297,9.92,-16.4,14.6,-35.8,30.776,-23.426,-0.076,0,0,0
1422629605320,0.071,4.728,9.212,-15.8,14.2,-35.8,29.013,-27.125,-0.396,0,0,0
1422629605420,0.148,4.057,10.916,-15.8,14.2,-35.8,30.829,-20.389,0.723,0,0,0
1422629605521,-1.059,2.41,8.264,-14.7,14.2,-36.3,35.623,-13.501,-2.061,0,0,0
1422629605620,-1.432,2.171,11.079,-14.7,14.2,-36.3,42.549,-10.989,-7.229,0,0,0
1422629605720,-1.288,2.286,9.614,-14.2,14.2,-36.8,40.164,-13.261,-7.428,0,0,0
1422629605820,-0.771,2.678,9.049,-14.2,14.8,-36.8,34.687,-16.426,-4.666,0,0,0
1422629605919,-1.049,2.477,10.016,-14.2,14.8,-36.8,37.46,-13.814,-5.803,0,0,0
1422629606031,-0.896,3.167,9.279,-14.2,14.1,-37.2,38.235,-15.379,-7.007,0,0,0
1422629606119,-0.58,3.176,9.777,-14.8,14.1,-37.2,33.991,-17.962,-3.228,0,0,0
1422629606222,-0.369,3.128,8.484,-14.8,14.1,-37.2,35.731,-16.066,-3.815,0,0,0
1422629606329,-0.465,3.014,9.595,-14.8,14.1,-37.2,33.719,-17.419,-2.636,0,0,0
1422629606419,-0.436,2.956,9.078,-14.8,14.1,-37.2,33.339,-18.017,-2.605,0,0,0
1422629606520,-0.561,2.927,9.566,-14.8,14.1,-37.2,34.546,-16.987,-3.2,0,0,0
1422629606620,-0.532,3.167,9.662,-15.6,14.1,-37.2,34.873,-18.124,-2.987,0,0,0
1422629606720,-0.455,3.119,9.489,-16,13.6,-37.2,35.673,-18.209,-2.484,0,0,0
1422629606820,-0.532,3.061,9.834,-16,13,-37.2,37.434,-17.263,-2.948,0,0,0
1422629606921,-0.58,3.119,9.355,-16.5,13,-37.2,36.584,-18.728,-2.423,0,0,0
1422629607021,-0.455,3.186,9.365,-16.5,12.3,-37.2,37.472,-18.764,-2.631,0,0,0
1422629607120,-0.35,3.253,9.269,-16.5,12.3,-37.2,36.528,-19.328,-2.031,0,0,0
1422629607220,-0.321,3.272,9.192,-16.5,12.3,-37.2,36.217,-19.576,-1.875,0,0,0
1422629607328,-0.446,3.282,9.355,-16.1,12.3,-37.2,36.466,-19.311,-2.567,0,0,0
1422629607419,-0.628,3.176,9.374,-16.1,12.3,-37.2,37.725,-18.629,-3.41,0,0,0
1422629607520,-0.455,3.205,9.164,-16.1,12.3,-37.2,36.619,-19.248,-2.682,0,0,0
1422629607621,-0.254,3.205,9.336,-16.1,12.3,-37.2,35.609,-19.545,-1.851,0,0,0
1422629607722,-0.331,3.253,9.106,-16.1,12.3,-37.2,35.649,-19.647,-1.954,0,0,0
1422629607820,-0.34,3.272,9.212,-16.1,12.3,-37.2,35.753,-19.539,-1.993,0,0,0
1422629607922,-0.359,3.263,9.173,-16.1,12.3,-37.2,35.852,-19.565,-2.108,0,0,0
1422629608020,-0.455,3.243,9.259,-16.1,12.3,-37.2,36.575,-19.276,-2.654,0,0,0
1422629608121,-0.455,3.32,9.346,-16.1,12.3,-37.2,35.98,-19.92,-2.453,0,0,0
1422629608222,-0.503,3.397,9.212,-16.1,12.3,-37.2,36.264,-20.21,-2.925,0,0,0
1422629608322,-0.379,3.263,9.24,-16.1,12.3,-37.2,35.795,-19.43,-1.968,0,0,0
1422629608420,-0.398,3.31,9.365,-16.1,12.3,-37.2,36.104,-19.45,-2.29,0,0,0
1422629608520,-0.379,3.272,9.173,-16.1,12.8,-37.2,35.385,-19.611,-2.216,0,0,0
1422629608620,-0.379,3.272,9.135,-16.1,12.8,-37.2,35.349,-19.689,-2.225,0,0,0
1422629608720,-0.446,3.349,9.164,-16.1,13.2,-37.2,35.11,-20.054,-2.608,0,0,0
1422629608820,-0.685,3.339,9.355,-16.1,13.2,-37.2,36.848,-18.496,-3.454,0,0,0
1422629608921,-0.599,3.224,9.48,-15.6,13.2,-37.2,35.867,-18.749,-3.417,0,0,0
1422629609021,-0.695,3.138,9.279,-15.6,13.2,-37.6,34.994,-19.872,-3.312,0,0,0
1422629609118,-0.503,3.138,9.327,-15.6,13.6,-37.6,34.977,-18.572,-2.92,0,0,0
1422629609218,-0.714,3.176,9.259,-15.2,13.6,-37.6,35.411,-18.876,-4.166,0,0,0
1422629609320,0.55,2.755,8.273,-15.2,14,-37.6,27.016,-18.382,3.602,0,0,0
1422629609419,0.493,3.1,8.455,-15.2,14,-37.6,26.745,-20.099,3.124,0,0,0
1422629609520,0.033,2.659,7.976,-15.2,14.5,-37.6,29.904,-19.656,0.022,0,0,0
1422629609620,0.522,2.238,8.685,-15.2,14.5,-37.6,29.017,-14.42,3.32,0,0,0
1422629609721,1.891,3.464,9.815,-15.2,14.5,-37.6,27.979,-14.323,4.205,0,0,0
1422629609820,1.738,2.736,11.491,-14.8,14.9,-37.6,21.885,-13.243,8.364,0,0,0
1422629609920,1.91,2.908,10.543,-14.8,15.5,-37.6,18.507,-15.187,9.9,0,0,0
1422629610020,-1.422,3.138,9.959,-14.8,19.5,-37.6,33.169,-17.327,-7.753,0,0,0
1422629610183,-1.968,2.631,9.891,-14.8,22.1,-37.6,32.453,-15.055,-8.261,0,0,0
1422629610220,-2.121,2.563,9.03,-14.3,21.5,-37.6,34.541,-14.617,-10.887,0,0,0
1422629610320,-1.844,2.18,9.959,-14.3,20.5,-37.6,36.246,-12.146,-10.251,0,0,0
1422629610421,-1.221,2.334,9.815,-14.3,19.4,-37.6,35.477,-13.135,-8.59,0,0,0
1422629610520,-1.087,2.516,9.556,-13.9,18.7,-37.6,32.697,-14.657,-6.269,0,0,0
1422629610623,-1.489,2.382,10.045,-13.9,17.3,-38,36.685,-13.194,-8.21,0,0,0
1422629610720,-0.867,2.439,9.911,-13.9,16.6,-38,34.01,-13.766,-4.851,0,0,0
1422629610818,-0.915,2.611,9.365,-13.9,15.4,-38,34.648,-15.513,-5.368,0,0,0
1422629610921,-1.394,2.688,9.499,-13.5,14.8,-38,36.506,-15.171,-6.959,0,0,0
1422629611021,-1.279,2.822,9.69,-13.5,14.8,-38,36.146,-16.099,-7.218,0,0,0
1422629611119,-1.154,2.985,9.604,-13.5,14.8,-38,35.546,-17.005,-7.181,0,0,0
1422629611221,-1.116,2.956,9.69,-13.5,14.8,-38,34.777,-16.861,-6.278,0,0,0
1422629611321,-0.81,2.889,9.547,-13.5,15.3,-38,32.695,-16.777,-4.637,0,0,0
1422629611419,-0.494,3.033,9.173,-13.5,15.3,-38.4,30.022,-18.262,-2.913,0,0,0
1422629611520,-0.398,3.023,9.394,-13.5,15.3,-38.4,29.616,-17.828,-2.306,0,0,0
1422629611621,-0.388,3.023,9.269,-13.1,15.3,-38.4,27.442,-18.443,-1.176,0,0,0
1422629611720,-0.197,3.128,9.039,-13.1,15.3,-38.4,27.133,-19.085,-1.177,0,0,0
1422629611821,-0.187,3.128,9.03,-13.1,15.3,-38.4,27.694,-18.269,-1.329,0,0,0
1422629611920,-0.245,3.081,9.145,-13.1,15.3,-38.4,27.655,-18.608,-1.447,0,0,0
1422629612020,-0.187,3.119,9.106,-13.1,14.9,-38.4,27.47,-18.895,-1.109,0,0,0
1422629612120,-0.178,3.272,9.02,-13.1,14.9,-38.4,26.915,-19.929,-1.051,0,0,0
1422629612220,-0.225,3.234,9.154,-13.5,14.9,-38.4,28.087,-19.454,-1.329,0,0,0
1422629612320,-0.359,3.301,9.087,-13.5,14.5,-38.4,28.272,-19.626,-1.279,0,0,0
1422629612418,-0.359,3.32,9.078,-13.5,14.5,-38.4,28.951,-20.076,-2.124,0,0,0
1422629612518,-0.379,3.339,9.164,-13.9,14.5,-38.4,29.709,-20.004,-2.213,0,0,0
1422629612620,-0.302,3.32,9.001,-13.9,14.5,-38.4,29.158,-20.242,-1.798,0,0,0
1422629612721,-0.369,3.339,9.202,-13.9,14.5,-38.4,29.691,-19.929,-2.157,0,0,0
1422629612820,-0.321,3.263,9.212,-13.9,14.5,-38.4,29.612,-19.496,-1.872,0,0,0
1422629612920,-0.312,3.31,9.039,-13.9,14.5,-38.4,29.285,-20.1,-1.852,0,0,0
1422629613029,-0.35,3.339,9.279,-13.9,14.5,-38.4,29.437,-19.771,-1.838,0,0,0
1422629613120,-0.34,3.32,9.135,-13.9,14.5,-38.4,29.512,-19.963,-2.003,0,0,0
1422629613221,-0.359,3.291,8.991,-13.9,14.5,-38.4,29.259,-20.028,-1.791,0,0,0
1422629613320,-0.58,3.224,9.259,-14.3,14.5,-38.4,31.965,-19.163,-3.382,0,0,0
1422629613419,-0.474,2.803,9.604,-14.3,14.5,-38.4,32.959,-16.248,-2.708,0,0,0
1422629613521,-0.436,3.234,9.403,-14.3,14.5,-38.4,31.175,-18.963,-2.5,0,0,0
1422629613620,-1.154,3.138,9.537,-14.3,14.5,-38.4,35.655,-18.093,-6.553,0,0,0
1422629613720,0.119,2.611,9.394,-14.3,15.1,-38.4,32.806,-16.217,-3.046,0,0,0
1422629613822,-0.436,2.315,9.518,-14.3,18.2,-38.4,30.656,-13.654,-2.539,0,0,0
1422629613919,-1.949,2.429,9.968,-13.8,18.9,-38.4,32.587,-12.019,-4.965,0,0,0
1422629614020,-1.26,2.257,9.978,-12.1,21.1,-38.4,29.643,-12.652,-7.021,0,0,0
1422629614120,-0.857,2.075,10.179,-9.8,22.1,-38.4,23.49,-11.481,-4.711,0,0,0
1422629614220,-0.407,2.247,9.327,-6.9,22.5,-38.4,15.089,-13.536,-2.421,0,0,0
1422629614320,-0.427,2.458,9.422,-5,23.4,-38.4,11.469,-14.608,-2.505,0,0,0
1422629614420,-0.245,2.717,9.374,-4,22.6,-38.4,16.038,-11.97,-7.46,0,0,0
1422629614520,-1.106,2.947,8.57,-2.1,25,-38.4,9.751,-18.823,-6.959,0,0,0
1422629614621,0.474,3.626,8.532,-0.7,24.4,-38.4,7.535,-10.094,-5.417,0,0,0
1422629614720,0.196,1.481,8.733,0.1,25.8,-38.4,358.569,-9.622,1.257,0,0,0
1422629614820,0.78,2.496,9.097,1.8,25.8,-38.4,352.401,-15.285,4.717,0,0,0
1422629614920,-0.063,2.544,9.164,2.7,25.8,-38.4,355.983,-15.515,-0.369,0,0,0
1422629615020,-0.551,2.315,9.7,3.6,25.8,-38.4,357.259,-13.399,-3.162,0,0,0
1422629615120,-0.388,2.219,9.518,2.6,25.4,-38.4,358.292,-12.937,-2.523,0,0,0
1422629615255,-0.254,2.391,9.604,1.3,24.9,-38.4,358.867,-14.44,-0.995,0,0,0
1422629615318,-0.254,2.391,9.604,0.7,24.9,-38.4,0.457,-13.973,-1.469,0,0,0
1422629615419,-0.838,2.602,9.307,-0.5,24,-38.4,5.844,-15.557,-4.955,0,0,0
1422629615562,-0.762,2.516,9.643,-1,24,-38.4,5.725,-14.655,-3.903,0,0,0
1422629615619,-0.714,2.429,9.633,-2.5,24,-38.4,8.66,-14.119,-4.104,0,0,0
1422629615718,-0.666,2.449,9.796,-3.8,24,-38.8,10.535,-13.998,-3.771,0,0,0
1422629967028,-0.857,2.908,8.762,-15.1,22.1,-37.7,29.067,-18.284,-5.299,0,0,0
1422629967126,-1.403,2.573,9.374,-15.1,22.1,-37.7,32.688,-15.185,-8.213,0,0,0
1422629967227,0.052,2.19,9.489,-14.3,22.1,-37.7,25.106,-12.995,0.3,0,0,0
1422629967327,-0.024,2.429,8.608,-13.4,22.7,-37.7,22.704,-15.758,-0.144,0,0,0
1422629967427,-0.35,2.18,10.399,-13,22.7,-37.7,21.634,-15.955,0.3,0,0,0
1422629967527,-0.685,2.678,8.273,-13,21.4,-37.7,26.139,-17.876,-4.499,0,0,0
1422629967627,1.029,2.765,9.872,-12.5,21.4,-37.7,22.461,-15.024,-0.249,0,0,0
1422629967727,-0.101,2.765,8.331,-11.9,22.1,-37.7,20.39,-18.349,-0.654,0,0,0
1422629967827,-0.532,2.305,10.217,-11.4,23,-37.7,23.284,-12.695,-2.899,0,0,0
1422629967927,-0.608,2.343,10.016,-11,23,-37.7,22.767,-13.146,-3.384,0,0,0
1422629968027,-0.963,2.19,9.518,-11,21.7,-37.7,25.931,-12.892,-5.629,0,0,0
1422629968127,0.924,2.947,9.097,-12.1,21.3,-37.7,19.86,-17.716,0.953,0,0,0
1422629968227,0.531,2.496,8.953,-12.1,21.3,-38.1,18.03,-15.548,3.266,0,0,0
1422629968327,0.636,2.506,8.848,-12.1,21.3,-38.1,17.393,-16.073,3.73,0,0,0
1422629968427,0.627,2.602,8.819,-12.1,21.3,-38.1,17.13,-16.395,3.898,0,0,0
1422629968527,0.895,2.745,8.972,-12.1,21.8,-38.1,15.154,-16.932,5.437,0,0,0
1422629968627,0.895,2.468,8.704,-12.6,21.8,-38.1,16.053,-15.74,5.637,0,0,0
1422629968727,1.039,2.257,9.336,-13.6,22.3,-38.1,17.507,-13.512,6.17,0,0,0
1422629968827,0.933,2.123,8.79,-14.6,22.3,-38.1,17.23,-13.444,7.986,0,0,0
1422629968927,0.665,2.161,8.943,-15.2,22.3,-38.1,22.193,-13.55,4.124,0,0,0
1422629969026,0.77,2.085,9.767,-17,22.3,-38.1,25.019,-13.886,3.963,0,0,0
1422629969126,0.933,2.066,9.307,-18.7,22.3,-38.1,26.667,-12.448,5.583,0,0,0
1422629969226,1.671,2.334,9.259,-19.3,22.3,-36.6,23.039,-13.928,9.916,0,0,0
1422629969326,1.402,2.305,9.499,-19.3,22.3,-35.8,25.275,-13.494,8.156,0,0,0
1422629969426,1.259,2.286,9.173,-19.3,22.3,-35.8,25.708,-13.868,7.577,0,0,0
1422629969526,0.55,2.496,8.225,-17.9,22.3,-36.4,25.497,-11.972,6.094,0,0,0
1422629969626,0.416,2.449,8.436,-16.8,22.3,-37,25.471,-16.162,2.709,0,0,0
1422629969726,0.263,2.324,9.566,-14.8,22.3,-37,23.737,-14.204,2.002,0,0,0
1422629969826,0.493,2.037,10.313,-14.1,22.3,-37.4,23.081,-11.157,2.676,0,0,0
1422629969926,0.79,2.209,9.173,-13,21.9,-37.8,18.23,-13.487,4.777,0,0,0
1422629970026,0.435,1.97,8.637,-13,21.9,-37.8,20.574,-12.823,2.805,0,0,0
1422629970126,0.885,2.295,8.838,-13.5,21.9,-37.8,17.991,-14.483,5.535,0,0,0
1422629970226,0.78,2.669,8.982,-13.5,21.9,-37.8,17.858,-15.84,5.321,0,0,0
1422629970326,0.416,2.621,8.857,-14.4,21.9,-37.8,21.882,-16.463,2.576,0,0,0
1422629970426,0.244,2.698,8.407,-14.8,21.9,-37.4,23.624,-15.279,1.895,0,0,0
1422629970526,0.119,2.152,8.915,-16.5,21.9,-36.7,28.075,-13.564,0.741,0,0,0
1422629970626,0.301,1.635,9.595,-20.1,21.9,-35.4,34.653,-9.665,1.771,0,0,0
1422629970726,1.163,2.018,8.857,-21.4,21.9,-34.6,30.34,-12.729,7.286,0,0,0
1422629970827,1.489,2.295,9.671,-22.2,21.9,-34.1,30.332,-13.194,8.508,0,0,0
1422629970926,1.46,2.18,9.796,-22.2,21.5,-34.1,31.121,-12.642,8.35,0,0,0
1422629971026,1.383,2.219,9.106,-21.5,21.5,-34.1,29.604,-13.543,8.391,0,0,0
1422629971126,1.182,1.999,9.078,-21,21.5,-34.7,29.578,-12.745,7.888,0,0,0
1422629971226,1.154,2.113,8.924,-20.5,21.5,-34.7,29.314,-13.208,7.166,0,0,0
1422629971326,1.096,2.142,9.125,-20.5,21.1,-34.7,30.132,-13.11,6.668,0,0,0
1422629971426,1.939,2.41,9.652,-21,21.1,-34.7,26.399,-13.751,11.024,0,0,0
1422629971526,2.054,2.401,9.403,-21,21.1,-34.7,25.372,-14.004,11.939,0,0,0
1422629971626,2.188,2.468,9.288,-20.6,21.1,-34.7,23.597,-14.014,12.874,0,0,0
1422629971726,1.939,2.429,9.125,-20.6,21.1,-34.7,24.734,-14.597,11.596,0,0,0
1422629971826,2.044,2.631,9.049,-20.6,20.7,-34.7,25.659,-15.151,10.757,0,0,0
1422629971926,1.891,2.611,9.001,-20.6,20.7,-34.7,24.773,-15.855,11.405,0,0,0
1422629972035,1.833,2.736,9.097,-20.2,20.7,-34.7,23.443,-16.528,11.932,0,0,0
1422629972126,1.9,2.841,8.991,-20.2,20.3,-34.7,24.035,-17.179,11.384,0,0,0
1422629972226,1.699,2.755,9.039,-20.6,20.3,-34.7,25.971,-16.676,10.186,0,0,0
1422629972326,1.556,2.784,9.058,-20.6,20.3,-34.7,27.762,-15.359,8.84,0,0,0
1422629972426,1.556,2.832,9.068,-20.6,19.9,-34.2,27.208,-17.104,9.293,0,0,0
1422629972526,1.632,2.812,9.125,-21.1,19.9,-34.2,28.21,-16.634,9.219,0,0,0
1422629972626,1.661,2.87,9.173,-21.1,19.5,-34.2,27.759,-17.11,9.804,0,0,0
1422629972726,1.69,3.061,9.441,-21.1,19.5,-34.2,27.686,-17.696,9.662,0,0,0
1422629972826,1.125,3.157,8.972,-20.6,18.2,-34.6,29.88,-19.246,6.743,0,0,0
1422629972926,0.742,3.186,8.446,-19.7,16.5,-34.6,31.356,-20.593,4.696,0,0,0
1422629973027,0.292,3.693,9.279,-17.3,14.6,-36.1,29.739,-20.102,3.783,0,0,0
1422629973126,0.205,4.029,8.446,-15.1,12.2,-36.9,27.855,-25.499,1.253,0,0,0
1422629973226,-0.283,4.182,7.938,-14.2,10.3,-37.7,29.071,-27.551,-1.001,0,0,0
1422629973326,-0.465,4.182,7.785,-13.6,9.2,-38.9,30.583,-28.193,-2.999,0,0,0
1422629973426,-0.379,4.364,8.235,-12.9,8.5,-39.3,29.057,-27.892,-2.316,0,0,0
1422629973526,-1.164,4.871,7.976,-13.6,8,-39.3,34.097,-31.15,-7.097,0,0,0
1422629973627,-1.24,4.22,8.704,-12.1,8,-39.3,35.039,-25.638,-7.299,0,0,0
1422629973726,-0.58,5.072,8.206,-12.1,7.3,-39.3,32.835,-32.39,-8.254,0,0,0
1422629973826,-0.312,4.689,8.493,-12.7,6.2,-39.3,29.772,-28.882,-1.838,0,0,0
1422629973926,-0.704,5.551,8.848,-13.5,5.8,-39.3,30.768,-36.246,-4.593,0,0,0
1422629974026,-1.298,5.398,7.363,-14.1,5.8,-39.3,35.378,-35.833,-8.085,0,0,0
1422629974126,-0.838,5.331,7.555,-14.1,5.8,-38.9,33.132,-35.054,-5.178,0,0,0
1422629974226,-1.288,5.771,7.794,-13.4,5.8,-39.4,33.6,-36.159,-7.567,0,0,0
1422629974326,-0.972,6.078,8.244,-13.8,7,-39.8,30.97,-36.214,-5.415,0,0,0
1422629974426,-0.503,5.417,9.001,-13.8,7.5,-39.8,27.537,-35.195,-2.028,0,0,0
1422629974526,0.378,3.962,9.116,-13.8,8.3,-39.2,27.846,-23.47,2.17,0,0,0
1422629974626,-0.896,3.54,9.595,-13.8,8.8,-39.2,40.745,-16.306,-4.366,0,0,0
1422629974726,-0.35,3.512,10.389,-13.8,8.8,-39.6,35.571,-18.664,-1.819,0,0,0
1422629974826,-0.551,3.09,8.493,-13.3,7.9,-39.6,36.805,-19.948,-3.489,0,0,0
1422629974926,-0.312,3.579,9.068,-13.3,7.9,-39.6,33.559,-21.526,-1.83,0,0,0
1422629975031,-0.513,3.406,9.202,-13.3,7.3,-39.6,36.573,-20.283,-2.987,0,0,0
1422629975141,-0.388,3.933,9.403,-13.3,7.3,-39.6,25.678,-30.539,0.727,0,0,0
1422629975226,0.205,4.393,8.426,-13.3,7.3,-39.6,26.489,-27.521,1.234,0,0,0
1422629975326,-0.388,4.278,8.532,-13.3,7.3,-39.6,31.345,-27.312,-2.644,0,0,0
1422629975427,0.158,3.981,9.365,-13.8,8.2,-39.6,29.637,-23.022,0.876,0,0,0
1422629975526,0.474,4.124,8.57,-13.8,8.7,-39.6,25.275,-25.663,2.847,0,0,0
1422629975627,0.387,4.057,8.446,-13.8,8.7,-39.6,25.908,-25.64,2.364,0,0,0
1422629975726,0.493,4.076,8.618,-13.8,9.6,-39.6,24.548,-25.28,2.951,0,0,0
1422629975827,0.474,4.163,8.244,-13.8,9.6,-39.6,24.989,-25.35,2.574,0,0,0
1422629975928,0.464,4.258,8.608,-14.2,9.6,-39.6,25.02,-26.29,2.758,0,0,0
1422629976026,0.062,4.096,8.618,-14.2,10.4,-39.6,24.832,-27.507,2.021,0,0,0
1422629976127,0.292,4.153,8.551,-14.2,9.9,-39.6,26.242,-25.885,1.752,0,0,0
1422629976227,0.196,4.038,8.599,-14.2,9.9,-39.6,27.298,-25.148,1.173,0,0,0
1422629976326,0.119,4.019,8.436,-14.2,9.9,-39.6,27.668,-25.472,0.727,0,0,0
1422629976426,0.301,4.22,8.551,-14.2,9.9,-39.6,26.004,-26.253,1.808,0,0,0
1422629976526,0.167,4.23,8.34,-14.2,9.9,-39.6,26.738,-26.538,1.077,0,0,0
1422629976626,0.1,4.201,8.398,-14.2,9.9,-39.6,27.279,-26.579,0.599,0,0,0
1422629976728,0.196,4.211,8.484,-14.2,9.9,-39.6,27.075,-26.579,0.774,0,0,0
1422629976826,0.205,4.239,8.235,-14.2,9.9,-40,26.039,-27.228,1.266,0,0,0
1422629976933,0.33,4.297,8.455,-14.2,10.4,-40,26.363,-26.628,0.9,0,0,0
1422629977026,0.292,4.278,8.426,-14.2,10.4,-40,25.232,-26.9,1.762,0,0,0
1422629977192,0.186,4.191,8.34,-14.2,10.4,-40,24.89,-27.002,2.014,0,0,0
1422629977226,0.234,4.182,8.465,-14.2,10.8,-40,25.792,-26.671,1.131,0,0,0
1422629977327,0.32,4.325,8.398,-14.2,10.8,-40,24.62,-27.241,1.935,0,0,0
1422629977426,0.205,4.278,8.369,-13.8,10.8,-40,24.774,-26.925,1.356,0,0,0
1422629977526,0.215,4.278,8.187,-13.8,10.8,-40,24.534,-27.578,1.332,0,0,0
1422629977626,0.11,4.191,8.474,-13.8,10.8,-40,25.85,-26.317,0.657,0,0,0
1422629977726,0.225,4.431,8.484,-13.8,10.8,-40,24.533,-27.566,1.335,0,0,0
1422629977826,0.1,4.297,8.378,-13.8,10.8,-40,25.557,-27.153,0.597,0,0,0
1422629977926,0.282,4.335,8.417,-13.8,10.8,-40,25.17,-27.098,0.954,0,0,0
1422629978026,0.282,4.364,8.407,-13.8,10.8,-40,24.18,-27.415,1.696,0,0,0
1422629978126,0.167,4.316,8.177,-13.8,10.8,-40,25.141,-27.008,1.01,0,0,0
1422629978226,0.282,4.287,8.378,-13.8,10.8,-40,24.301,-27.084,1.706,0,0,0
1422629978326,0.234,4.345,8.417,-13.8,10.8,-40,24.557,-27.296,1.411,0,0,0
1422629978426,0.234,4.335,8.302,-13.8,10.8,-40,24.432,-27.562,1.426,0,0,0
1422629978536,0.244,4.325,8.283,-13.8,10.4,-40,24.609,-27.57,1.493,0,0,0
1422629978626,0.167,4.364,8.302,-13.8,10.4,-40,24.024,-27.983,1.85,0,0,0
1422629978727,0.253,4.431,8.369,-13.8,10.4,-40,24.442,-27.89,1.523,0,0,0
1422629978826,0.263,4.421,8.216,-13.8,10.4,-40,24.368,-28.033,1.537,0,0,0
1422629978935,0.234,4.383,8.331,-13.8,10.4,-40,24.622,-27.744,1.419,0,0,0
1422629979026,0.301,4.46,8.331,-14.2,10.4,-40,24.637,-28.146,1.823,0,0,0
1422629979126,-0.005,4.488,8.149,-14.2,10,-40,26.711,-28.848,-0.025,0,0,0
1422629979226,-0.12,4.574,8.915,-14.2,10,-40,28.209,-27.165,-0.679,0,0,0
1422629979327,0.186,4.287,7.727,-14.2,10,-40,22.047,-28.637,4.049,0,0,0
1422629979426,-0.675,4.124,8.235,-14.2,10,-40,32.322,-26.528,-4.185,0,0,0
1422629979526,0.1,4.689,8.809,-14.2,10,-40,26.933,-28.336,-0.023,0,0,0
1422629979626,0.062,4.373,8.57,-14.2,10,-40,27.08,-27.035,0.365,0,0,0
1422629979726,0.062,4.364,7.976,-14.2,10,-40,26.322,-28.681,0.386,0,0,0
1422629979826,0.033,4.115,8.197,-14.2,10,-40,27.444,-26.663,0.204,0,0,0
1422629979926,0.292,4.565,8.005,-14.2,10,-40,24.297,-29.676,1.808,0,0,0
1422629980026,-0.072,4.306,8.608,-14.2,10,-40,25.976,-27.495,1.138,0,0,0
1422629980126,-0.35,4.182,8.723,-14.2,10,-40,30.544,-25.592,-2.061,0,0,0
1422629980226,0.196,4.421,8.637,-14.2,10,-40,26.755,-27.716,0.377,0,0,0
1422629980326,0.263,4.306,8.599,-14.2,10,-40,25.883,-26.59,1.561,0,0,0
1422629980448,-0.197,3.962,8.551,-14.2,10.4,-40,25.475,-31.115,0.027,0,0,0
1422629980527,-0.072,4.316,8.666,-13.8,10.4,-40,27.309,-26.477,-0.424,0,0,0
1422629980627,-0.503,4.153,8.522,-13.8,10.4,-40,30.464,-25.939,-3.03,0,0,0
1422629980727,-0.608,4.306,8.886,-13.8,10.4,-40,33.206,-24.84,-5.064,0,0,0
1422629980827,-0.762,4.325,8.982,-13.8,10.9,-40,31.571,-25.638,-4.359,0,0,0
1422629980927,-1.097,3.818,8.934,-13.4,10.9,-40,34.309,-23.047,-6.192,0,0,0
1422629981027,-1.662,3.942,8.197,-13.4,10.9,-40,36.974,-25.241,-10.35,0,0,0
1422629981127,-2.007,3.942,7.804,-13.4,11.3,-40,38.306,-26.077,-12.918,0,0,0
1422629981227,-2.495,3.377,12.544,-13.4,11.3,-40,44.396,-14.794,-10.872,0,0,0
1422629981327,0.483,4.278,8.666,-13.4,11.7,-40,22.045,-26.231,2.851,0,0,0
1422629981427,1.508,3.387,10.782,-13.4,11.7,-40,24.988,-18.216,3.394,0,0,0
1422629981527,1.929,2.908,8.484,-13.4,11.7,-40,11.732,-18.487,12.128,0,0,0
1422629981627,0.876,2.994,8.369,-13.8,12.1,-40,17.06,-18.058,9.231,0,0,0
1422629981727,0.799,3.061,9.164,-15.3,12.1,-39.2,26.796,-18.404,4.726,0,0,0
1422629981827,0.703,3.196,9.068,-16.7,12.1,-38.3,29.923,-19.359,4.179,0,0,0
1422629981927,0.273,3.607,9.231,-18.5,11,-37.5,36.224,-21.336,1.573,0,0,0
1422629982027,-0.034,3.444,9.432,-19,9.2,-37.5,41.765,-20.054,-0.186,0,0,0
1422629982127,0.426,3.808,8.197,-20.1,7.5,-36.8,41.945,-22.081,2.198,0,0,0
1422629982265,-0.015,4.019,8.369,-20.5,6.8,-35.7,44.397,-24.29,0.138,0,0,0
1422629982326,-0.111,4.163,8.656,-20.5,6.2,-35.7,44.444,-25.652,-0.088,0,0,0
1422629982427,0.148,4.412,8.694,-20.5,4.9,-35.7,44.214,-26.906,0.865,0,0,0
1422629982527,0.263,4.354,8.57,-20.5,4.1,-36.2,44.11,-26.931,1.561,0,0,0
1422629982626,0.043,4.23,8.206,-20,3.5,-36.2,45.261,-27.275,0.253,0,0,0
1422629982727,-0.015,4.393,8.388,-20,3.5,-35.5,45.752,-27.637,-0.086,0,0,0
1422629982827,0.024,4.718,8.378,-20,3.5,-36.1,45.118,-28.742,-0.714,0,0,0
1422629982932,0.282,4.603,8.484,-19.6,3.5,-36.1,42.301,-28.468,1.664,0,0,0
1422629983027,-0.043,4.306,7.986,-19.6,3,-35.7,45,-28.342,0.141,0,0,0
1422629983127,0.043,4.661,8.273,-19.6,3.6,-35.7,43.322,-29.395,0.246,0,0,0
1422629983227,0.043,4.756,8.436,-19.6,3.6,-35.7,43.312,-29.413,0.241,0,0,0
1422629983327,0.081,4.709,8.302,-19.6,3.6,-35.7,42.962,-29.567,0.479,0,0,0
1422629983427,0.024,4.699,8.254,-19.6,3.6,-35.7,43.25,-29.65,0.134,0,0,0
1422629983527,-0.13,4.594,8.321,-19.6,3.6,-35.7,43.432,-29.399,0.134,0,0,0
1422629983627,0.052,4.661,8.302,-20,3.6,-35.3,44.143,-29.312,0.307,0,0,0
1422629983727,0.071,4.737,8.388,-20,4,-35.3,43.259,-30.006,0.248,0,0,0
1422629983827,-0.091,4.756,8.206,-20,4,-35.3,43.971,-30.1,-0.544,0,0,0
1422629983927,-0.024,4.622,8.56,-20,4,-35.3,44.778,-28.362,-0.132,0,0,0
1422629984027,-0.082,4.709,8.216,-20,3.6,-35.3,44.56,-29.821,-0.483,0,0,0
1422629984127,-0.053,4.689,8.417,-20,3.6,-35.3,44.881,-29.124,-0.305,0,0,0
1422629984226,-0.063,4.613,8.359,-20,3.6,-35.3,44.925,-29.381,-0.537,0,0,0
1422629984326,-0.015,4.651,8.283,-20,3.6,-35.3,44.527,-29.316,-0.086,0,0,0
1422629984427,-0.178,4.527,8.455,-20,3.6,-35.3,45.879,-28.132,-0.59,0,0,0
1422629984527,-0.283,4.431,8.532,-19.6,3.6,-35.3,46.908,-27.432,-1.685,0,0,0
1422629984627,-0.359,4.268,8.522,-19.6,3.6,-35.3,48.009,-26.575,-2.153,0,0,0
1422629984727,-0.245,4.191,8.072,-19.6,4,-35.3,46.264,-27.426,-1.534,0,0,0
1422629984827,-0.13,3.904,8.264,-19.6,6.3,-35.3,44.173,-25.288,-0.808,0,0,0
1422629984927,0.215,4.172,8.905,-19.6,9.1,-35.3,37.8,-25.931,2.021,0,0,0
1422629985026,0.11,4.096,8.953,-19.6,10.5,-35.3,38.422,-24.578,0.631,0,0,0
1422629985126,-0.848,3.607,8.762,-19.2,11.3,-35.3,37.503,-24.073,0.459,0,0,0
1422629985244,-0.494,3.387,9.508,-19.2,13.2,-35.7,40.694,-19.578,-2.789,0,0,0
1422629985326,0.024,3.531,8.675,-19.2,15,-35.7,35.019,-22.134,0.136,0,0,0
1422629985427,0.148,3.435,8.838,-18.8,16.2,-35.7,33.018,-21.24,0.89,0,0,0
1422629985527,0.1,3.397,9.231,-18.8,17.2,-35.7,32.871,-20.197,0.571,0,0,0
1422629985627,-0.111,2.966,8.982,-18.4,17.7,-35.7,31.697,-19.814,0.98,0,0,0
1422629985727,-0.043,2.927,9.078,-18.4,17.7,-35.7,33.648,-17.874,-0.258,0,0,0
1422629985827,-0.111,3.004,8.704,-18.4,17.7,-35.7,33.534,-18.468,-0.446,0,0,0
1422629985927,0.196,3.425,9.384,-18,17.7,-35.7,30.925,-20.045,1.115,0,0,0
1422629986027,0.292,3.875,8.062,-18,17.7,-35.7,28.218,-25.661,1.862,0,0,0
1422629986127,-0.082,3.789,8.417,-17.6,17.7,-35.3,30.254,-24.24,-0.495,0,0,0
1422629986227,-0.225,4.076,9.499,-17,17.7,-35.3,30.341,-23.216,-1.249,0,0,0
1422629986327,0.531,4.44,9.528,-16.1,16.4,-35.3,27.215,-25.619,0.982,0,0,0
1422629986445,1.393,4.756,10.811,-16.1,15.7,-35.3,22.884,-23.573,6.724,0,0,0
1422629986528,-0.503,2.525,8.551,-15.2,13.4,-35.3,29.426,-18.025,2.993,0,0,0
1422629986629,-0.953,2.429,9.125,-15.2,11.9,-35.7,42.263,-14.832,-5.759,0,0,0
1422629986728,-0.8,2.745,9.461,-15.2,11.4,-36.1,40.627,-16.124,-4.636,0,0,0
1422629986828,-0.934,2.793,9.001,-15.2,11.4,-36.1,40.852,-17.146,-5.661,0,0,0
1422629986928,-0.886,2.879,8.694,-15.2,10.7,-36.6,40.822,-18.24,-5.519,0,0,0
1422629987027,-1.212,2.927,9.259,-15.6,10.1,-36.6,42.014,-16.844,-4.153,0,0,0
1422629987130,-0.216,3.387,9.604,-15.6,10.1,-36.6,37.045,-19.419,-1.211,0,0,0
1422629987228,-0.685,3.454,9.891,-15.6,9.5,-36.6,42.463,-20.29,-6.655,0,0,0
1422629987341,-0.666,3.665,9.288,-15.6,8.5,-36.6,40.212,-21.483,-3.815,0,0,0
1422629987427,-0.733,3.31,9.71,-15.6,7.5,-37,43.811,-18.778,-4.078,0,0,0
1422629987528,-0.532,3.243,9.298,-15.6,7.5,-37,42.409,-19.198,-3.083,0,0,0
1422629987628,-0.666,3.32,9.106,-15.6,7.5,-37,42.643,-19.985,-3.929,0,0,0
1422629987728,-0.34,3.54,9.173,-15.6,7.5,-37,42.446,-20.035,-3.78,0,0,0
1422629987828,-0.359,3.502,9.087,-15.6,7.9,-37,39.352,-21.055,-2.108,0,0,0
1422629987928,-0.111,3.406,8.426,-15.6,7.3,-37,38.85,-20.864,-0.931,0,0,0
1422629988027,-0.551,3.128,8.618,-16.1,9,-37,40.949,-19.914,-3.44,0,0,0
1422629988130,-0.139,3.444,9.202,-16.1,9.4,-37,36.811,-20.205,-0.189,0,0,0
1422629988228,0.129,3.531,8.79,-16.5,10.1,-37,34.574,-21.872,0.767,0,0,0
1422629988328,-0.35,2.947,8.991,-16.5,10.6,-37,39.565,-18.126,-2.108,0,0,0
1422629988428,0.043,2.86,9.202,-16.5,11.1,-37,38.912,-16.737,-1.12,0,0,0
1422629988528,0.062,2.784,9.125,-16.5,11.1,-37,37.13,-16.967,0.368,0,0,0
1422629988628,0.292,2.678,8.752,-16.5,12.9,-37,34.062,-17.232,1.103,0,0,0
1422629988728,0.713,2.879,9.633,-16.5,13.9,-37,30.037,-16.605,4.054,0,0,0
1422629988828,0.483,2.937,9.451,-16.5,14.3,-37,30.758,-17.245,2.782,0,0,0
1422629988928,-0.35,2.343,9.489,-17,14.3,-36.5,38.898,-13.861,-2.04,0,0,0
1422629989028,-0.407,2.315,9.585,-17,14.9,-36.5,38.632,-13.564,-2.355,0,0,0
1422629989128,-0.216,2.449,9.413,-17,15.4,-36.5,36.094,-15.281,-1.462,0,0,0
1422629989227,-0.225,2.372,9.355,-17,15.8,-36.5,36.202,-14.225,-1.336,0,0,0
1422629989328,-0.063,2.382,9.154,-17,15.8,-36.1,35.915,-14.124,-0.873,0,0,0
1422629989428,-0.283,2.42,9.413,-17,15.8,-36.1,36.495,-14.406,-1.665,0,0,0
